"Time (s)","Acceleration x (m/s^2)","Acceleration y (m/s^2)","Acceleration z (m/s^2)","Absolute acceleration (m/s^2)"
1.222458333E-3,-9.909393311E-2,6.062393188E-2,9.806257782E0,9.806945832E0
1.124345833E-2,-1.041833496E-1,6.182144165E-2,9.813293152E0,9.814040888E0
2.126445833E-2,-1.001417542E-1,6.271957397E-2,9.808952179E0,9.809663856E0
3.128645833E-2,-9.205856323E-2,5.553451538E-2,9.817933502E0,9.818522145E0
4.130745833E-2,-9.595046997E-2,7.244934082E-2,9.818232880E0,9.818969003E0
5.132845833E-2,-9.879455566E-2,6.885681152E-2,9.805659027E0,9.806398451E0
6.134945833E-2,-1.010398865E-1,7.469467163E-2,9.805958405E0,9.806763410E0
7.137045833E-2,-1.008901978E-1,7.499404907E-2,9.807006226E0,9.807811889E0
8.139245833E-2,-9.684860229E-2,7.170089722E-2,9.812095642E0,9.812835551E0
9.141345833E-2,-9.999206543E-2,6.316864014E-2,9.814640350E0,9.815352969E0
1.014344583E-1,-1.035845947E-1,5.598358154E-2,9.820328522E0,9.821034375E0
1.114554583E-1,-9.325607300E-2,5.972579956E-2,9.810149689E0,9.810774729E0
1.214764583E-1,-1.005908203E-1,6.526428223E-2,9.816885681E0,9.817617960E0
1.314984583E-1,-9.954299927E-2,6.092330933E-2,9.810000000E0,9.810694188E0
1.415194583E-1,-1.001417542E-1,6.421646118E-2,9.807155914E0,9.807877408E0
1.515404583E-1,-9.415420532E-2,6.346801758E-2,9.824968872E0,9.825624995E0
1.615614583E-1,-9.430389404E-2,5.478607178E-2,9.815388794E0,9.815994698E0
1.715824583E-1,-9.460327148E-2,6.840774536E-2,9.806557159E0,9.807252047E0
1.816044583E-1,-1.010398865E-1,5.733078003E-2,9.814340973E0,9.815028508E0
1.916254583E-1,-9.954299927E-2,6.301895142E-2,9.808503113E0,9.809210647E0
2.016464583E-1,-9.400451660E-2,6.451583862E-2,9.822274475E0,9.822936170E0
2.116674583E-1,-9.639953613E-2,6.631210327E-2,9.814640350E0,9.815337761E0
2.216884583E-1,-9.999206543E-2,7.005432129E-2,9.814340973E0,9.815100344E0
2.317138750E-1,-9.385482788E-2,6.107299805E-2,9.810000000E0,9.810639054E0
2.417348750E-1,-8.981323242E-2,6.122268677E-2,9.817185059E0,9.817786772E0
2.517558750E-1,-1.007405090E-1,5.882766724E-2,9.813592529E0,9.814285897E0
2.617768750E-1,-1.049317932E-1,6.032455444E-2,9.817185059E0,9.817931157E0
2.717978750E-1,-9.849517822E-2,6.496490479E-2,9.811197510E0,9.811906966E0
2.818198750E-1,-9.804611206E-2,6.526428223E-2,9.812245331E0,9.812952201E0
2.918408750E-1,-9.056167603E-2,7.379653931E-2,9.806706848E0,9.807402640E0
3.018618750E-1,-1.011895752E-1,6.137237549E-2,9.813293152E0,9.814006745E0
3.118828750E-1,-1.013392639E-1,5.957611084E-2,9.818232880E0,9.818936594E0
3.219038750E-1,-9.879455566E-2,6.661148071E-2,9.810898132E0,9.811621661E0
3.319258750E-1,-1.019380188E-1,6.286926270E-2,9.803114319E0,9.803845891E0
3.419468750E-1,-9.759704590E-2,6.466552734E-2,9.803264008E0,9.803963077E0
3.519678750E-1,-9.669891357E-2,6.825805664E-2,9.815239105E0,9.815952757E0
3.619888750E-1,-9.804611206E-2,7.214996338E-2,9.812844086E0,9.813599121E0
3.720098750E-1,-9.909393311E-2,6.092330933E-2,9.819580078E0,9.820269048E0
3.820318750E-1,-9.520202637E-2,6.316864014E-2,9.813592529E0,9.814257590E0
3.920528750E-1,-9.205856323E-2,6.930587769E-2,9.812844086E0,9.813520629E0
4.020738750E-1,-9.669891357E-2,6.960525513E-2,9.811047821E0,9.811771243E0
4.120948750E-1,-1.002914429E-1,6.825805664E-2,9.815089417E0,9.815839128E0
4.221158750E-1,-9.834548950E-2,7.319778442E-2,9.809401245E0,9.810167304E0
4.321378750E-1,-1.002914429E-1,6.541397095E-2,9.823471985E0,9.824201708E0
4.421588750E-1,-9.669891357E-2,5.568420410E-2,9.824669495E0,9.825303155E0
4.521798750E-1,-1.004411316E-1,6.840774536E-2,9.814790039E0,9.815542346E0
4.622008750E-1,-1.016386414E-1,6.750961304E-2,9.810299377E0,9.811058141E0
4.722218750E-1,-9.999206543E-2,6.331832886E-2,9.819729767E0,9.820442980E0
4.822438750E-1,-9.580078125E-2,6.870712280E-2,9.806407471E0,9.807116087E0
4.922648750E-1,-9.939331055E-2,6.855743408E-2,9.810898132E0,9.811641112E0
5.022858750E-1,-1.046324158E-1,6.930587769E-2,9.811347198E0,9.812149871E0
5.123068750E-1,-9.804611206E-2,6.122268677E-2,9.812395020E0,9.813075832E0
5.223278750E-1,-9.445358276E-2,7.035369873E-2,9.812844086E0,9.813550844E0
5.323488750E-1,-9.355545044E-2,6.331832886E-2,9.818831635E0,9.819481478E0
5.423708750E-1,-9.400451660E-2,6.676116943E-2,9.819280701E0,9.819957606E0
5.523918750E-1,-1.019380188E-1,6.152206421E-2,9.805958405E0,9.806681220E0
5.624128750E-1,-9.026229858E-2,6.286926270E-2,9.816885681E0,9.817501938E0
5.724338750E-1,-9.939331055E-2,6.676116943E-2,9.800719299E0,9.801450651E0
5.824548750E-1,-9.774673462E-2,6.721023560E-2,9.808802490E0,9.809519761E0
5.924768750E-1,-9.909393311E-2,6.017486572E-2,9.817634125E0,9.818318615E0
6.024978750E-1,-9.669891357E-2,6.466552734E-2,9.818382568E0,9.819071676E0
6.125188750E-1,-1.043330383E-1,6.391708374E-2,9.800719299E0,9.801483029E0
6.225398750E-1,-1.007405090E-1,7.020401001E-2,9.807305603E0,9.808074247E0
6.325618750E-1,-1.026864624E-1,7.110214233E-2,9.816735992E0,9.817530523E0
6.425828750E-1,-9.999206543E-2,6.182144165E-2,9.817035370E0,9.817739239E0
6.526038750E-1,-1.008901978E-1,6.601272583E-2,9.810299377E0,9.811040230E0
6.626248750E-1,-9.954299927E-2,6.062393188E-2,9.811945953E0,9.812638150E0
6.726458750E-1,-9.984237671E-2,5.912704468E-2,9.811347198E0,9.812033345E0
6.826678750E-1,-1.019380188E-1,6.676116943E-2,9.815837860E0,9.816594181E0
6.926888750E-1,-9.759704590E-2,6.676116943E-2,9.821526031E0,9.822237822E0
7.027098750E-1,-9.415420532E-2,5.852828979E-2,9.799072723E0,9.799699833E0
7.127308750E-1,-1.031355286E-1,6.197113037E-2,9.825268250E0,9.826004963E0
7.227518750E-1,-9.939331055E-2,6.586303711E-2,9.812694397E0,9.813418787E0
7.327728750E-1,-9.924362183E-2,5.209167480E-2,9.812844086E0,9.813484187E0
7.427948750E-1,-1.061293030E-1,6.810836792E-2,9.812694397E0,9.813504650E0
7.528158750E-1,-9.879455566E-2,6.331832886E-2,9.809251556E0,9.809953398E0
7.628368750E-1,-9.684860229E-2,6.286926270E-2,9.813592529E0,9.814271778E0
7.728578750E-1,-9.834548950E-2,5.942642212E-2,9.805958405E0,9.806631612E0
7.828798750E-1,-9.864486694E-2,6.466552734E-2,9.817334747E0,9.818043287E0
7.929008750E-1,-9.624984741E-2,6.870712280E-2,9.820478210E0,9.821190202E0
8.029218750E-1,-1.040336609E-1,6.586303711E-2,9.817634125E0,9.818406222E0
8.129428750E-1,-9.684860229E-2,6.855743408E-2,9.816436615E0,9.817153742E0
8.229638750E-1,-9.954299927E-2,6.691085815E-2,9.803413696E0,9.804147386E0
8.329848750E-1,-9.430389404E-2,6.780899048E-2,9.817484436E0,9.818171517E0
8.430068750E-1,-1.014889526E-1,5.942642212E-2,9.818981323E0,9.819685623E0
8.530278750E-1,-1.007405090E-1,6.795867920E-2,9.821226654E0,9.821978417E0
8.630488750E-1,-9.864486694E-2,7.185058594E-2,9.820627899E0,9.821386137E0
8.730698750E-1,-1.023870850E-1,6.735992432E-2,9.814939728E0,9.815704882E0
8.830918750E-1,-9.684860229E-2,6.466552734E-2,9.818232880E0,9.818923473E0
8.931128750E-1,-9.565109253E-2,5.628295898E-2,9.818681946E0,9.819309144E0
9.031338750E-1,-9.610015869E-2,6.376739502E-2,9.807904358E0,9.808582437E0
9.131548750E-1,-9.639953613E-2,6.496490479E-2,9.823022919E0,9.823710733E0
9.231758750E-1,-1.007405090E-1,6.780899048E-2,9.824968872E0,9.825719314E0
9.331978750E-1,-1.050814819E-1,6.676116943E-2,9.814041595E0,9.814831206E0
9.432188750E-1,-1.022373962E-1,6.242019653E-2,9.814939728E0,9.815670666E0
9.532398750E-1,-9.729766846E-2,5.852828979E-2,9.813742218E0,9.814399050E0
9.632608750E-1,-9.759704590E-2,5.807922363E-2,9.826316071E0,9.826972367E0
9.732818750E-1,-9.145980835E-2,7.080276489E-2,9.818681946E0,9.819363171E0
9.833028750E-1,-9.774673462E-2,6.960525513E-2,9.812395020E0,9.813128723E0
9.933248750E-1,-9.894424438E-2,6.227050781E-2,9.810000000E0,9.810696590E0
1.003345875E0,-9.879455566E-2,6.526428223E-2,9.808503113E0,9.809217762E0
1.013366875E0,-8.831634521E-2,6.885681152E-2,9.817783813E0,9.818422483E0
1.023387875E0,-9.789642334E-2,5.837860107E-2,9.820178833E0,9.820840294E0
1.033409875E0,-9.819580078E-2,7.888595581E-2,9.819580078E0,9.820387891E0
1.043430875E0,-9.984237671E-2,6.735992432E-2,9.816286926E0,9.817025765E0
1.053451875E0,-9.999206543E-2,6.526428223E-2,9.813891907E0,9.814618291E0
1.063472875E0,-9.834548950E-2,6.286926270E-2,9.821076965E0,9.821770570E0
1.073493875E0,-1.046324158E-1,6.017486572E-2,9.809401245E0,9.810143819E0
1.083515875E0,-9.086105347E-2,5.972579956E-2,9.806706848E0,9.807309626E0
1.093536875E0,-1.026864624E-1,6.556365967E-2,9.814191284E0,9.814947461E0
1.103557875E0,-9.684860229E-2,7.020401001E-2,9.803563385E0,9.804293106E0
1.113578875E0,-1.013392639E-1,6.765930176E-2,9.812694397E0,9.813450910E0
1.123599875E0,-9.550140381E-2,5.748046875E-2,9.811047821E0,9.811680991E0
1.133621875E0,-9.744735718E-2,6.451583862E-2,9.822873230E0,9.823568434E0
1.143642875E0,-9.490264893E-2,6.661148071E-2,9.807155914E0,9.807841288E0
1.153663875E0,-9.969268799E-2,6.930587769E-2,9.809700623E0,9.810451990E0
1.163684875E0,-9.864486694E-2,5.957611084E-2,9.817334747E0,9.818011085E0
1.173705875E0,-9.445358276E-2,6.706054688E-2,9.813742218E0,9.814425858E0
1.183727875E0,-9.610015869E-2,7.110214233E-2,9.803563385E0,9.804292213E0
1.193748875E0,-9.819580078E-2,6.541397095E-2,9.813742218E0,9.814451473E0
1.203769875E0,-9.969268799E-2,5.463638306E-2,9.809700623E0,9.810359324E0
1.213790875E0,-1.046324158E-1,6.271957397E-2,9.826765137E0,9.827522309E0
1.223811875E0,-1.032852173E-1,6.346801758E-2,9.813293152E0,9.814041905E0
1.233832750E0,-9.939331055E-2,6.616241455E-2,9.808353424E0,9.809080150E0
1.243853750E0,-9.370513916E-2,6.227050781E-2,9.811646576E0,9.812291618E0
1.253874750E0,-1.025367737E-1,6.256988525E-2,9.806557159E0,9.807292802E0
1.263895750E0,-9.460327148E-2,7.319778442E-2,9.814490662E0,9.815219541E0
1.273916750E0,-9.370513916E-2,6.451583862E-2,9.816436615E0,9.817095842E0
1.283938750E0,-1.007405090E-1,6.571334839E-2,9.808203735E0,9.808941197E0
1.293959750E0,-1.023870850E-1,6.511459351E-2,9.818382568E0,9.819132308E0
1.303980750E0,-9.729766846E-2,6.481521606E-2,9.814790039E0,9.815486303E0
1.314001750E0,-9.819580078E-2,6.960525513E-2,9.817634125E0,9.818371918E0
1.324022750E0,-1.004411316E-1,5.972579956E-2,9.815837860E0,9.816533425E0
1.334044750E0,-9.744735718E-2,6.795867920E-2,9.812395020E0,9.813114204E0
1.344065750E0,-9.969268799E-2,6.376739502E-2,9.811646576E0,9.812360238E0
1.354086750E0,-9.325607300E-2,6.301895142E-2,9.818083191E0,9.818728310E0
1.364107750E0,-8.801696777E-2,6.511459351E-2,9.826615448E0,9.827225349E0
1.374128750E0,-1.019380188E-1,7.080276489E-2,9.818981323E0,9.819765711E0
1.384150750E0,-9.669891357E-2,6.346801758E-2,9.807006226E0,9.807688310E0
1.394171750E0,-9.370513916E-2,7.110214233E-2,9.818382568E0,9.819087148E0
1.404192750E0,-9.864486694E-2,6.331832886E-2,9.819430389E0,9.820129999E0
1.414213750E0,-9.460327148E-2,6.002517700E-2,9.824968872E0,9.825607673E0
1.424234750E0,-9.415420532E-2,6.661148071E-2,9.815837860E0,9.816515420E0
1.434256750E0,-9.610015869E-2,6.840774536E-2,9.810748444E0,9.811457582E0
1.444277750E0,-1.037342834E-1,6.541397095E-2,9.814340973E0,9.815107158E0
1.454298750E0,-9.969268799E-2,6.825805664E-2,9.812694397E0,9.813438191E0
1.464319750E0,-9.714797974E-2,5.733078003E-2,9.824370117E0,9.825017697E0
1.474340750E0,-1.014889526E-1,6.795867920E-2,9.811197510E0,9.811957754E0
1.484362750E0,-1.028361511E-1,6.316864014E-2,9.812844086E0,9.813586225E0
1.494383750E0,-1.001417542E-1,6.466552734E-2,9.811496887E0,9.812221011E0
1.504404750E0,-9.774673462E-2,6.451583862E-2,9.816286926E0,9.816985573E0
1.514425750E0,-1.031355286E-1,5.837860107E-2,9.820478210E0,9.821193272E0
1.524446750E0,-9.295669556E-2,6.735992432E-2,9.820627899E0,9.821298827E0
1.534468750E0,-9.520202637E-2,6.646179199E-2,9.808203735E0,9.808890921E0
1.544489750E0,-9.924362183E-2,6.706054688E-2,9.815688171E0,9.816418934E0
1.554510750E0,-9.924362183E-2,7.005432129E-2,9.815239105E0,9.815990811E0
1.564531750E0,-9.385482788E-2,7.125183105E-2,9.817634125E0,9.818341273E0
1.574552750E0,-9.759704590E-2,6.511459351E-2,9.818382568E0,9.819083529E0
1.584574750E0,-9.430389404E-2,6.421646118E-2,9.818532257E0,9.819195113E0
1.594595750E0,-9.969268799E-2,6.107299805E-2,9.819430389E0,9.820126359E0
1.604616750E0,-9.190887451E-2,5.867797852E-2,9.821226654E0,9.821831975E0
1.614637750E0,-9.894424438E-2,5.733078003E-2,9.821675720E0,9.822341408E0
1.624658750E0,-1.095721436E-1,5.733078003E-2,9.813742218E0,9.814521343E0
1.634680750E0,-9.774673462E-2,6.496490479E-2,9.811796265E0,9.812498194E0
1.644701750E0,-9.325607300E-2,6.691085815E-2,9.821975098E0,9.822645701E0
1.654722750E0,-9.864486694E-2,6.301895142E-2,9.810598755E0,9.811297067E0
1.664743750E0,-9.804611206E-2,6.706054688E-2,9.810449066E0,9.811168179E0
1.674764750E0,-9.550140381E-2,5.942642212E-2,9.810149689E0,9.810794511E0
1.684786750E0,-9.101074219E-2,5.882766724E-2,9.815688171E0,9.816286361E0
1.694807750E0,-1.023870850E-1,6.616241455E-2,9.807006226E0,9.807763848E0
1.704828750E0,-1.004411316E-1,6.556365967E-2,9.818382568E0,9.819115198E0
1.714849750E0,-9.789642334E-2,6.316864014E-2,9.815987549E0,9.816678947E0
1.724870750E0,-9.490264893E-2,6.361770630E-2,9.815239105E0,9.815904055E0
1.734892750E0,-9.849517822E-2,5.628295898E-2,9.824819183E0,9.825474088E0
1.744913750E0,-9.984237671E-2,6.945556641E-2,9.821675720E0,9.822428749E0
1.754934750E0,-1.086740112E-1,6.586303711E-2,9.822723541E0,9.823545477E0
1.764955750E0,-1.004411316E-1,6.062393188E-2,9.820328522E0,9.821029272E0
1.774976750E0,-1.002914429E-1,7.035369873E-2,9.822573853E0,9.823337778E0
1.784998750E0,-1.074765015E-1,6.825805664E-2,9.819280701E0,9.820106101E0
1.795019750E0,-9.939331055E-2,6.391708374E-2,9.806557159E0,9.807269128E0
1.805040750E0,-1.020877075E-1,6.032455444E-2,9.807604980E0,9.808321793E0
1.815061750E0,-1.002914429E-1,6.152206421E-2,9.818981323E0,9.819686225E0
1.825082750E0,-9.834548950E-2,7.155120850E-2,9.828561401E0,9.829313843E0
1.835104750E0,-9.669891357E-2,5.972579956E-2,9.821825409E0,9.822482996E0
1.845125750E0,-1.016386414E-1,6.840774536E-2,9.812844086E0,9.813608872E0
1.855146750E0,-9.280700684E-2,6.421646118E-2,9.817783813E0,9.818432456E0
1.865167750E0,-9.250762939E-2,7.319778442E-2,9.825417938E0,9.826126054E0
1.875188750E0,-9.235794067E-2,6.496490479E-2,9.825867004E0,9.826515802E0
1.885210750E0,-1.061293030E-1,6.810836792E-2,9.818382568E0,9.819192352E0
1.895231750E0,-9.999206543E-2,5.972579956E-2,9.811047821E0,9.811739139E0
1.905252750E0,-9.849517822E-2,5.718109131E-2,9.819280701E0,9.819941164E0
1.915273750E0,-9.729766846E-2,6.960525513E-2,9.819879456E0,9.820608141E0
1.925294750E0,-1.005908203E-1,6.750961304E-2,9.821526031E0,9.822273141E0
1.935316750E0,-9.669891357E-2,6.212081909E-2,9.819131012E0,9.819803639E0
1.945337750E0,-9.460327148E-2,6.376739502E-2,9.814790039E0,9.815453101E0
1.955358750E0,-9.295669556E-2,6.780899048E-2,9.825717316E0,9.826390984E0
1.965379750E0,-1.001417542E-1,6.960525513E-2,9.820029144E0,9.820786407E0
1.975400750E0,-1.029858398E-1,6.885681152E-2,9.817933502E0,9.818715069E0
1.985422750E0,-1.047821045E-1,6.750961304E-2,9.820478210E0,9.821269221E0
1.995443750E0,-1.022373962E-1,6.331832886E-2,9.816885681E0,9.817622226E0
2.005464750E0,-9.789642334E-2,5.957611084E-2,9.819580078E0,9.820248771E0
2.015485750E0,-9.714797974E-2,5.763015747E-2,9.818083191E0,9.818732938E0
2.025506750E0,-9.984237671E-2,6.571334839E-2,9.823022919E0,9.823750099E0
2.035528750E0,-9.535171509E-2,7.080276489E-2,9.817933502E0,9.818651803E0
2.045549750E0,-1.037342834E-1,6.017486572E-2,9.821376343E0,9.822108485E0
2.055570750E0,-9.056167603E-2,6.331832886E-2,9.811047821E0,9.811670091E0
2.065591750E0,-1.049317932E-1,6.331832886E-2,9.813592529E0,9.814357759E0
2.075612750E0,-1.064286804E-1,6.900650024E-2,9.818981323E0,9.819800568E0
2.085634750E0,-9.789642334E-2,6.436614990E-2,9.822124786E0,9.822823526E0
2.095655750E0,-9.684860229E-2,6.601272583E-2,9.818083191E0,9.818782759E0
2.105676750E0,-1.013392639E-1,6.212081909E-2,9.816137238E0,9.816856875E0
2.115697750E0,-9.714797974E-2,6.601272583E-2,9.821675720E0,9.822377989E0
2.125718750E0,-1.004411316E-1,6.361770630E-2,9.816286926E0,9.817006909E0
2.135740750E0,-9.909393311E-2,6.137237549E-2,9.820927277E0,9.821618947E0
2.145761750E0,-9.864486694E-2,6.855743408E-2,9.825717316E0,9.826451633E0
2.155782750E0,-1.055305481E-1,6.017486572E-2,9.824070740E0,9.824821811E0
2.165803750E0,-9.639953613E-2,6.466552734E-2,9.822573853E0,9.823259723E0
2.175824750E0,-9.879455566E-2,6.945556641E-2,9.817185059E0,9.817927832E0
2.185846750E0,-9.774673462E-2,6.571334839E-2,9.810449066E0,9.811156076E0
2.195867750E0,-9.969268799E-2,6.122268677E-2,9.817634125E0,9.818331154E0
2.205888750E0,-9.699829102E-2,7.334747314E-2,9.826465759E0,9.827218215E0
2.215909750E0,-9.669891357E-2,6.526428223E-2,9.824669495E0,9.825362120E0
2.225930750E0,-9.400451660E-2,7.140151978E-2,9.814191284E0,9.814901201E0
2.235952000E0,-1.052311707E-1,5.284011841E-2,9.811646576E0,9.812353143E0
2.245973000E0,-9.684860229E-2,6.526428223E-2,9.815538483E0,9.816233228E0
2.255994000E0,-1.008901978E-1,6.541397095E-2,9.811347198E0,9.812083962E0
2.266015000E0,-1.053808594E-1,6.391708374E-2,9.814340973E0,9.815114836E0
2.276036000E0,-1.007405090E-1,6.915618896E-2,9.818681946E0,9.819442264E0
2.286058000E0,-1.013392639E-1,6.107299805E-2,9.822424164E0,9.823136770E0
2.296079000E0,-1.019380188E-1,5.598358154E-2,9.817933502E0,9.818622295E0
2.306100000E0,-9.370513916E-2,7.304809570E-2,9.823621674E0,9.824340154E0
2.316121000E0,-1.050814819E-1,6.616241455E-2,9.827962646E0,9.828747090E0
2.326142000E0,-1.076261902E-1,6.077362061E-2,9.825417938E0,9.826195321E0
2.336164000E0,-1.026864624E-1,7.439529419E-2,9.815987549E0,9.816806544E0
2.346185000E0,-1.005908203E-1,6.271957397E-2,9.821226654E0,9.821942030E0
2.356206000E0,-9.400451660E-2,6.735992432E-2,9.827214203E0,9.827894647E0
2.366227000E0,-1.052311707E-1,7.050338745E-2,9.821076965E0,9.821893763E0
2.376248000E0,-1.073268127E-1,6.406677246E-2,9.827363892E0,9.828158762E0
2.386270000E0,-1.041833496E-1,7.110214233E-2,9.825717316E0,9.826526876E0
2.396291000E0,-9.535171509E-2,7.738906860E-2,9.826316071E0,9.827083420E0
2.406312000E0,-9.505233765E-2,6.661148071E-2,9.826765137E0,9.827450589E0
2.416333000E0,-9.759704590E-2,6.721023560E-2,9.823771362E0,9.824486052E0
2.426354000E0,-9.295669556E-2,7.035369873E-2,9.822274475E0,9.822966276E0
2.436376000E0,-9.909393311E-2,6.735992432E-2,9.817933502E0,9.818664635E0
2.446397000E0,-9.729766846E-2,5.703140259E-2,9.817334747E0,9.817982530E0
2.456418000E0,-8.951385498E-2,7.020401001E-2,9.821526031E0,9.822184834E0
2.466439000E0,-1.077758789E-1,6.301895142E-2,9.822124786E0,9.822918220E0
2.476460000E0,-9.385482788E-2,7.304809570E-2,9.814939728E0,9.815660274E0
2.486482000E0,-9.520202637E-2,6.930587769E-2,9.817334747E0,9.818040959E0
2.496503000E0,-1.013392639E-1,6.750961304E-2,9.812544708E0,9.813300202E0
2.506524000E0,-1.031355286E-1,6.197113037E-2,9.823471985E0,9.824208833E0
2.516545000E0,-9.864486694E-2,5.583389282E-2,9.817035370E0,9.817689733E0
2.526566000E0,-9.834548950E-2,5.927673340E-2,9.810299377E0,9.810971381E0
2.536588000E0,-9.909393311E-2,6.721023560E-2,9.826316071E0,9.827045555E0
2.546609000E0,-9.954299927E-2,6.915618896E-2,9.824370117E0,9.825117790E0
2.556630000E0,-9.116043091E-2,7.065307617E-2,9.817185059E0,9.817862525E0
2.566651000E0,-9.654922485E-2,6.975494385E-2,9.814640350E0,9.815363096E0
2.576672000E0,-9.505233765E-2,6.002517700E-2,9.818981323E0,9.819624850E0
2.586694000E0,-1.031355286E-1,6.735992432E-2,9.818831635E0,9.819604318E0
2.596715000E0,-9.714797974E-2,6.062393188E-2,9.822274475E0,9.822941965E0
2.606736000E0,-1.010398865E-1,5.703140259E-2,9.817933502E0,9.818619042E0
2.616757000E0,-9.520202637E-2,6.676116943E-2,9.822573853E0,9.823262063E0
2.626778000E0,-9.789642334E-2,6.571334839E-2,9.824819183E0,9.825526649E0
2.636800000E0,-9.714797974E-2,6.691085815E-2,9.818981323E0,9.819689864E0
2.646821000E0,-9.355545044E-2,6.586303711E-2,9.818831635E0,9.819498217E0
2.656842000E0,-9.774673462E-2,7.155120850E-2,9.825717316E0,9.826464001E0
2.666863000E0,-9.550140381E-2,5.284011841E-2,9.820178833E0,9.820785351E0
2.676884000E0,-9.505233765E-2,5.927673340E-2,9.821825409E0,9.822464204E0
2.686906000E0,-1.001417542E-1,5.897735596E-2,9.819729767E0,9.820417476E0
2.696927000E0,-9.984237671E-2,6.077362061E-2,9.820178833E0,9.820874413E0
2.706948000E0,-9.774673462E-2,6.227050781E-2,9.828112335E0,9.828795659E0
2.716969000E0,-9.879455566E-2,6.825805664E-2,9.825417938E0,9.826151698E0
2.726990000E0,-9.490264893E-2,6.661148071E-2,9.823621674E0,9.824305899E0
2.737012000E0,-9.505233765E-2,6.721023560E-2,9.815837860E0,9.816528157E0
2.747033000E0,-8.996292114E-2,6.646179199E-2,9.812993774E0,9.813631199E0
2.757054000E0,-1.053808594E-1,6.616241455E-2,9.822124786E0,9.822912904E0
2.767075000E0,-1.064286804E-1,6.765930176E-2,9.812993774E0,9.813804138E0
2.777096000E0,-9.759704590E-2,6.556365967E-2,9.821526031E0,9.822229755E0
2.787118000E0,-9.759704590E-2,5.822891235E-2,9.823322296E0,9.823979678E0
2.797139000E0,-9.894424438E-2,6.212081909E-2,9.827513580E0,9.828207982E0
2.807160000E0,-9.729766846E-2,6.870712280E-2,9.823471985E0,9.824194081E0
2.817181000E0,-1.019380188E-1,6.526428223E-2,9.825118561E0,9.825864111E0
2.827202000E0,-1.055305481E-1,6.466552734E-2,9.822723541E0,9.823503250E0
2.837224000E0,-1.011895752E-1,6.451583862E-2,9.825867004E0,9.826599819E0
2.847245000E0,-1.041833496E-1,5.688171387E-2,9.820029144E0,9.820746514E0
2.857266000E0,-9.145980835E-2,6.301895142E-2,9.816735992E0,9.817364302E0
2.867287000E0,-9.789642334E-2,6.795867920E-2,9.821226654E0,9.821949658E0
2.877308000E0,-9.520202637E-2,5.523513794E-2,9.821376343E0,9.821993057E0
2.887330000E0,-9.849517822E-2,6.466552734E-2,9.820927277E0,9.821634055E0
2.897351000E0,-9.639953613E-2,6.391708374E-2,9.818232880E0,9.818914153E0
2.907372000E0,-9.864486694E-2,5.897735596E-2,9.826765137E0,9.827437214E0
2.917393000E0,-9.804611206E-2,5.897735596E-2,9.818681946E0,9.819348579E0
2.927414000E0,-9.879455566E-2,6.406677246E-2,9.825268250E0,9.825973799E0
2.937436000E0,-9.984237671E-2,7.035369873E-2,9.824220428E0,9.824979652E0
2.947457000E0,-1.028361511E-1,5.688171387E-2,9.811646576E0,9.812350347E0
2.957478000E0,-9.580078125E-2,5.373825073E-2,9.820927277E0,9.821541537E0
2.967499000E0,-1.037342834E-1,5.882766724E-2,9.817035370E0,9.817759671E0
2.977520000E0,-1.026864624E-1,6.601272583E-2,9.810598755E0,9.811358220E0
2.987542000E0,-1.046324158E-1,7.559280396E-2,9.827513580E0,9.828361277E0
2.997563000E0,-9.610015869E-2,7.544311523E-2,9.824070740E0,9.824830421E0
3.007584000E0,-9.939331055E-2,7.005432129E-2,9.819879456E0,9.820632320E0
3.017605000E0,-9.819580078E-2,6.810836792E-2,9.812245331E0,9.812973025E0
3.027626000E0,-9.894424438E-2,7.155120850E-2,9.813442841E0,9.814202460E0
3.037648000E0,-1.085243225E-1,6.750961304E-2,9.817484436E0,9.818316339E0
3.047669000E0,-9.505233765E-2,6.062393188E-2,9.824070740E0,9.824717610E0
3.057690000E0,-9.131011963E-2,7.140151978E-2,9.829309845E0,9.829993273E0
3.067711000E0,-9.789642334E-2,6.735992432E-2,9.820927277E0,9.821646178E0
3.077732000E0,-9.834548950E-2,6.376739502E-2,9.826914825E0,9.827613805E0
3.087754000E0,-1.061293030E-1,6.182144165E-2,9.817334747E0,9.818103017E0
3.097775000E0,-1.007405090E-1,6.376739502E-2,9.815089417E0,9.815813526E0
3.107796000E0,-1.092727661E-1,6.391708374E-2,9.823771362E0,9.824586999E0
3.117817000E0,-1.013392639E-1,6.436614990E-2,9.828411713E0,9.829144899E0
3.127838000E0,-9.460327148E-2,6.331832886E-2,9.808802490E0,9.809463048E0
3.137860000E0,-9.699829102E-2,6.780899048E-2,9.822573853E0,9.823286813E0
3.147881000E0,-1.002914429E-1,5.867797852E-2,9.815837860E0,9.816525576E0
3.157902000E0,-1.080752563E-1,5.628295898E-2,9.816436615E0,9.817192870E0
3.167923000E0,-1.050814819E-1,6.511459351E-2,9.820627899E0,9.821405926E0
3.177944000E0,-1.011895752E-1,6.571334839E-2,9.814790039E0,9.815531625E0
3.187966000E0,-9.550140381E-2,6.930587769E-2,9.812245331E0,9.812954818E0
3.197987000E0,-9.999206543E-2,6.062393188E-2,9.813442841E0,9.814139497E0
3.208008000E0,-1.001417542E-1,5.807922363E-2,9.823022919E0,9.823705046E0
3.218029000E0,-1.004411316E-1,6.182144165E-2,9.824070740E0,9.824778685E0
3.228050000E0,-1.001417542E-1,6.242019653E-2,9.830806732E0,9.831514922E0
3.238073708E0,-1.070274353E-1,6.002517700E-2,9.821675720E0,9.822442255E0
3.248094708E0,-9.909393311E-2,6.511459351E-2,9.816286926E0,9.817003032E0
3.258115708E0,-9.729766846E-2,5.882766724E-2,9.813293152E0,9.813951804E0
3.268136708E0,-1.005908203E-1,6.616241455E-2,9.812844086E0,9.813582681E0
3.278157708E0,-1.013392639E-1,7.379653931E-2,9.821975098E0,9.822775086E0
3.288179708E0,-9.595046997E-2,7.319778442E-2,9.824370117E0,9.825111328E0
3.298200708E0,-9.804611206E-2,6.301895142E-2,9.819580078E0,9.820271755E0
3.308221708E0,-1.022373962E-1,6.571334839E-2,9.813143463E0,9.813896034E0
3.318242708E0,-9.639953613E-2,5.733078003E-2,9.816436615E0,9.817077340E0
3.328263708E0,-9.669891357E-2,6.960525513E-2,9.815239105E0,9.815962218E0
3.338285708E0,-9.445358276E-2,6.900650024E-2,9.824070740E0,9.824767136E0
3.348306708E0,-9.849517822E-2,6.212081909E-2,9.824819183E0,9.825509263E0
3.358327708E0,-9.894424438E-2,6.496490479E-2,9.824819183E0,9.825532168E0
3.368348708E0,-9.864486694E-2,6.825805664E-2,9.817334747E0,9.818067606E0
3.378369708E0,-9.520202637E-2,6.571334839E-2,9.821376343E0,9.822057571E0
3.388391708E0,-9.550140381E-2,7.020401001E-2,9.823921051E0,9.824636072E0
3.398412708E0,-9.699829102E-2,6.107299805E-2,9.830657043E0,9.831325266E0
3.408433708E0,-1.029858398E-1,6.421646118E-2,9.829609222E0,9.830358452E0
3.418454708E0,-1.010398865E-1,6.316864014E-2,9.822124786E0,9.822847584E0
3.428475708E0,-9.460327148E-2,6.271957397E-2,9.826016693E0,9.826672253E0
3.438497708E0,-9.804611206E-2,6.661148071E-2,9.817185059E0,9.817900621E0
3.448518708E0,-1.020877075E-1,6.646179199E-2,9.829160156E0,9.829914977E0
3.458539708E0,-1.023870850E-1,6.331832886E-2,9.821376343E0,9.822114110E0
3.468560708E0,-1.001417542E-1,6.616241455E-2,9.812694397E0,9.813428410E0
3.478582708E0,-9.520202637E-2,6.496490479E-2,9.817933502E0,9.818609989E0
3.488603708E0,-1.037342834E-1,6.301895142E-2,9.819580078E0,9.820330193E0
3.498624708E0,-1.023870850E-1,7.888595581E-2,9.819280701E0,9.820131343E0
3.508645708E0,-9.774673462E-2,6.571334839E-2,9.820328522E0,9.821034820E0
3.518666708E0,-9.819580078E-2,6.915618896E-2,9.828112335E0,9.828846172E0
3.528688708E0,-9.819580078E-2,6.376739502E-2,9.825417938E0,9.826115527E0
3.538709708E0,-9.265731812E-2,6.316864014E-2,9.817484436E0,9.818124888E0
3.548730708E0,-9.580078125E-2,6.256988525E-2,9.823471985E0,9.824138365E0
3.558751708E0,-1.002914429E-1,6.301895142E-2,9.818083191E0,9.818797651E0
3.568772708E0,-9.999206543E-2,6.960525513E-2,9.826016693E0,9.826771970E0
3.578794708E0,-9.699829102E-2,6.631210327E-2,9.819879456E0,9.820582390E0
3.588815708E0,-1.047821045E-1,6.227050781E-2,9.826765137E0,9.827521048E0
3.598836708E0,-1.013392639E-1,5.927673340E-2,9.819580078E0,9.820281884E0
3.608857708E0,-9.475296021E-2,6.331832886E-2,9.821975098E0,9.822636212E0
3.618878708E0,-9.819580078E-2,6.391708374E-2,9.824370117E0,9.825068753E0
3.628900708E0,-1.026864624E-1,6.825805664E-2,9.810149689E0,9.810924553E0
3.638921708E0,-1.025367737E-1,6.885681152E-2,9.810149689E0,9.810927172E0
3.648942708E0,-9.565109253E-2,7.394622803E-2,9.829908600E0,9.830652077E0
3.658963708E0,-9.385482788E-2,6.227050781E-2,9.819729767E0,9.820375708E0
3.668984708E0,-1.016386414E-1,6.676116943E-2,9.828411713E0,9.829163965E0
3.679006708E0,-9.789642334E-2,7.349716187E-2,9.823621674E0,9.824384374E0
3.689027708E0,-1.013392639E-1,6.376739502E-2,9.827064514E0,9.827793898E0
3.699048708E0,-9.939331055E-2,6.256988525E-2,9.818232880E0,9.818935324E0
3.709069708E0,-9.624984741E-2,6.212081909E-2,9.813891907E0,9.814560479E0
3.719091708E0,-9.909393311E-2,6.391708374E-2,9.810598755E0,9.811307402E0
3.729112708E0,-9.939331055E-2,6.152206421E-2,9.820627899E0,9.821323553E0
3.739133708E0,-1.026864624E-1,6.436614990E-2,9.821675720E0,9.822423401E0
3.749154708E0,-9.235794067E-2,6.062393188E-2,9.820927277E0,9.821548647E0
3.759175708E0,-1.041833496E-1,6.017486572E-2,9.827064514E0,9.827800982E0
3.769197708E0,-1.017883301E-1,6.840774536E-2,9.820328522E0,9.821094275E0
3.779218708E0,-9.520202637E-2,7.050338745E-2,9.822573853E0,9.823288209E0
3.789239708E0,-9.175918579E-2,6.526428223E-2,9.827663269E0,9.828308324E0
3.799260708E0,-1.034349060E-1,6.227050781E-2,9.822873230E0,9.823615164E0
3.809281708E0,-1.034349060E-1,6.750961304E-2,9.828411713E0,9.829187816E0
3.819303708E0,-9.954299927E-2,6.691085815E-2,9.820029144E0,9.820761593E0
3.829324708E0,-1.002914429E-1,6.301895142E-2,9.815388794E0,9.816103450E0
3.839345708E0,-1.004411316E-1,5.688171387E-2,9.826465759E0,9.827143698E0
3.849366708E0,-9.774673462E-2,6.316864014E-2,9.827663269E0,9.828352356E0
3.859387708E0,-9.714797974E-2,6.496490479E-2,9.818532257E0,9.819227763E0
3.869409708E0,-9.924362183E-2,5.822891235E-2,9.828411713E0,9.829085242E0
3.879430708E0,-9.984237671E-2,5.972579956E-2,9.824070740E0,9.824759619E0
3.889451708E0,-1.005908203E-1,6.795867920E-2,9.827962646E0,9.828712361E0
3.899472708E0,-1.034349060E-1,6.646179199E-2,9.816735992E0,9.817505869E0
3.909494708E0,-9.849517822E-2,6.676116943E-2,9.833650818E0,9.834370685E0
3.919515708E0,-9.789642334E-2,7.319778442E-2,9.825268250E0,9.826028587E0
3.929536708E0,-9.849517822E-2,6.242019653E-2,9.819131012E0,9.819823390E0
3.939557708E0,-9.340576172E-2,6.721023560E-2,9.821376343E0,9.822050454E0
3.949578708E0,-9.714797974E-2,6.616241455E-2,9.826316071E0,9.827019015E0
3.959600708E0,-9.819580078E-2,6.331832886E-2,9.827962646E0,9.828657152E0
3.969621708E0,-9.490264893E-2,6.451583862E-2,9.815987549E0,9.816658309E0
3.979642708E0,-1.035845947E-1,7.110214233E-2,9.822723541E0,9.823527017E0
3.989663708E0,-9.954299927E-2,6.406677246E-2,9.832752686E0,9.833465246E0
3.999685708E0,-1.005908203E-1,6.706054688E-2,9.832004242E0,9.832747482E0
4.009706708E0,-9.879455566E-2,5.987548828E-2,9.817783813E0,9.818463446E0
4.019727708E0,-1.016386414E-1,5.733078003E-2,9.826166382E0,9.826859264E0
4.029748708E0,-1.058299255E-1,6.436614990E-2,9.819879456E0,9.820660645E0
4.039769708E0,-1.028361511E-1,5.703140259E-2,9.810598755E0,9.811303470E0
4.049791708E0,-1.034349060E-1,6.960525513E-2,9.821376343E0,9.822167629E0
4.059812708E0,-1.053808594E-1,6.975494385E-2,9.817933502E0,9.818746821E0
4.069833708E0,-1.020877075E-1,6.601272583E-2,9.823471985E0,9.824224215E0
4.079854708E0,-9.894424438E-2,6.676116943E-2,9.821376343E0,9.822101623E0
4.089875708E0,-9.699829102E-2,6.346801758E-2,9.815388794E0,9.816073249E0
4.099897708E0,-9.984237671E-2,6.062393188E-2,9.818232880E0,9.818927673E0
4.109918708E0,-1.023870850E-1,6.227050781E-2,9.820478210E0,9.821209346E0
4.119939708E0,-9.684860229E-2,6.346801758E-2,9.820927277E0,9.821609869E0
4.129960708E0,-9.580078125E-2,5.658233643E-2,9.824519806E0,9.825149809E0
4.139981708E0,-9.969268799E-2,5.837860107E-2,9.824968872E0,9.825648072E0
4.150003708E0,-9.340576172E-2,6.631210327E-2,9.819580078E0,9.820248207E0
4.160024708E0,-9.774673462E-2,5.987548828E-2,9.829160156E0,9.829828527E0
4.170045708E0,-1.055305481E-1,5.688171387E-2,9.823471985E0,9.824203482E0
4.180066708E0,-9.984237671E-2,6.107299805E-2,9.815388794E0,9.816086572E0
4.190088708E0,-9.610015869E-2,6.900650024E-2,9.823322296E0,9.824034714E0
4.200109708E0,-1.002914429E-1,6.601272583E-2,9.826765137E0,9.827498619E0
4.210130708E0,-9.250762939E-2,5.837860107E-2,9.831106110E0,9.831714655E0
4.220151708E0,-1.029858398E-1,5.957611084E-2,9.816586304E0,9.817307271E0
4.230172708E0,-1.010398865E-1,5.343887329E-2,9.812694397E0,9.813360082E0
4.240191000E0,-9.699829102E-2,6.346801758E-2,9.815987549E0,9.816671962E0
4.250212000E0,-9.610015869E-2,6.780899048E-2,9.820178833E0,9.820883138E0
4.260233000E0,-9.819580078E-2,6.421646118E-2,9.821076965E0,9.821777789E0
4.270254000E0,-9.580078125E-2,6.122268677E-2,9.813293152E0,9.813951727E0
4.280276000E0,-9.385482788E-2,6.092330933E-2,9.823471985E0,9.824109233E0
4.290297000E0,-1.080752563E-1,6.765930176E-2,9.821376343E0,9.822203994E0
4.300318000E0,-1.031355286E-1,6.137237549E-2,9.827363892E0,9.828096691E0
4.310339000E0,-9.729766846E-2,6.122268677E-2,9.823322296E0,9.823994910E0
4.320360000E0,-1.065783691E-1,7.244934082E-2,9.818232880E0,9.819078609E0
4.330382000E0,-9.924362183E-2,6.780899048E-2,9.823322296E0,9.824057629E0
4.340403000E0,-1.010398865E-1,6.451583862E-2,9.825417938E0,9.826149246E0
4.350424000E0,-1.001417542E-1,6.706054688E-2,9.819280701E0,9.820020314E0
4.360445000E0,-9.565109253E-2,6.212081909E-2,9.811197510E0,9.811860410E0
4.370466000E0,-1.028361511E-1,6.137237549E-2,9.812844086E0,9.813574827E0
4.380488000E0,-1.016386414E-1,6.376739502E-2,9.826316071E0,9.827048601E0
4.390509000E0,-9.520202637E-2,7.484436035E-2,9.817334747E0,9.818081617E0
4.400530000E0,-9.834548950E-2,5.987548828E-2,9.810748444E0,9.811424052E0
4.410551000E0,-9.879455566E-2,5.972579956E-2,9.811646576E0,9.812325722E0
4.420573000E0,-9.939331055E-2,6.032455444E-2,9.824819183E0,9.825507115E0
4.430594000E0,-9.864486694E-2,6.002517700E-2,9.810449066E0,9.811128616E0
4.440615000E0,-1.013392639E-1,6.092330933E-2,9.818831635E0,9.819543572E0
4.450636000E0,-9.550140381E-2,6.466552734E-2,9.808802490E0,9.809480539E0
4.460657000E0,-1.041833496E-1,6.256988525E-2,9.808802490E0,9.809555314E0
4.470679000E0,-1.013392639E-1,6.421646118E-2,9.814340973E0,9.815074230E0
4.480700000E0,-9.729766846E-2,6.182144165E-2,9.818232880E0,9.818909594E0
4.490721000E0,-9.580078125E-2,6.855743408E-2,9.818681946E0,9.819388630E0
4.500742000E0,-9.056167603E-2,5.837860107E-2,9.820478210E0,9.821069278E0
4.510763000E0,-1.007405090E-1,6.107299805E-2,9.820328522E0,9.821035120E0
4.520785000E0,-9.909393311E-2,6.391708374E-2,9.812694397E0,9.813402892E0
4.530806000E0,-1.005908203E-1,5.897735596E-2,9.806108093E0,9.806801353E0
4.540827000E0,-9.864486694E-2,5.837860107E-2,9.824819183E0,9.825487818E0
4.550848000E0,-9.460327148E-2,6.227050781E-2,9.818232880E0,9.818886101E0
4.560870000E0,-9.939331055E-2,6.616241455E-2,9.823322296E0,9.824047915E0
4.570891000E0,-1.025367737E-1,6.870712280E-2,9.815837860E0,9.816613844E0
4.580912000E0,-1.010398865E-1,6.286926270E-2,9.827513580E0,9.828234062E0
4.590933000E0,-1.005908203E-1,7.080276489E-2,9.812395020E0,9.813166032E0
4.600954000E0,-1.038839722E-1,5.972579956E-2,9.812245331E0,9.812976994E0
4.610976000E0,-9.999206543E-2,7.319778442E-2,9.818232880E0,9.819014880E0
4.620997000E0,-1.020877075E-1,7.020401001E-2,9.822723541E0,9.823504887E0
4.631018000E0,-9.924362183E-2,5.942642212E-2,9.816137238E0,9.816818785E0
4.641039000E0,-9.759704590E-2,6.346801758E-2,9.823172607E0,9.823862451E0
4.651060000E0,-9.744735718E-2,6.975494385E-2,9.819729767E0,9.820461009E0
4.661082000E0,-9.909393311E-2,6.795867920E-2,9.819729767E0,9.820464891E0
4.671103000E0,-1.026864624E-1,6.616241455E-2,9.820777588E0,9.821537273E0
4.681124000E0,-9.535171509E-2,6.631210327E-2,9.823172607E0,9.823859187E0
4.691145000E0,-1.041833496E-1,6.256988525E-2,9.825417938E0,9.826169489E0
4.701167000E0,-9.939331055E-2,6.092330933E-2,9.828860779E0,9.829552120E0
4.711188000E0,-9.415420532E-2,6.167175293E-2,9.823471985E0,9.824116767E0
4.721209000E0,-9.849517822E-2,5.598358154E-2,9.819729767E0,9.820383300E0
4.731230000E0,-1.019380188E-1,6.256988525E-2,9.820777588E0,9.821505932E0
4.741251000E0,-9.954299927E-2,7.080276489E-2,9.813891907E0,9.814652118E0
4.751273000E0,-9.430389404E-2,5.613327026E-2,9.823621674E0,9.824234675E0
4.761294000E0,-9.879455566E-2,6.137237549E-2,9.815987549E0,9.816676550E0
4.771315000E0,-1.014889526E-1,6.361770630E-2,9.816286926E0,9.817017686E0
4.781334000E0,-1.029858398E-1,5.538482666E-2,9.824220428E0,9.824916315E0
4.791345000E0,-1.010398865E-1,7.065307617E-2,9.816586304E0,9.817360520E0
4.801357000E0,-9.834548950E-2,6.436614990E-2,9.821825409E0,9.822528656E0
4.811368000E0,-9.505233765E-2,6.346801758E-2,9.813592529E0,9.814258070E0
4.821380000E0,-9.295669556E-2,6.616241455E-2,9.813143463E0,9.813806756E0
4.831392000E0,-1.065783691E-1,6.197113037E-2,9.824220428E0,9.824993964E0
4.841404000E0,-9.819580078E-2,6.795867920E-2,9.815538483E0,9.816264896E0
4.851416000E0,-9.864486694E-2,6.975494385E-2,9.817484436E0,9.818227804E0
4.861428000E0,-9.759704590E-2,6.316864014E-2,9.818083191E0,9.818771461E0
4.871440000E0,-9.879455566E-2,6.436614990E-2,9.817334747E0,9.818042825E0
4.881452000E0,-9.744735718E-2,6.242019653E-2,9.810149689E0,9.810832237E0
4.891463000E0,-1.013392639E-1,5.807922363E-2,9.821226654E0,9.821921188E0
4.901475000E0,-1.032852173E-1,5.987548828E-2,9.812993774E0,9.813719974E0
4.911487000E0,-9.490264893E-2,6.301895142E-2,9.813143463E0,9.813804692E0
4.921499000E0,-9.789642334E-2,5.912704468E-2,9.811347198E0,9.812013737E0
4.931511000E0,-1.007405090E-1,6.421646118E-2,9.828112335E0,9.828838409E0
4.941523000E0,-9.610015869E-2,6.376739502E-2,9.808952179E0,9.809630185E0
4.951535000E0,-9.669891357E-2,7.080276489E-2,9.821825409E0,9.822556596E0
4.961548000E0,-9.879455566E-2,6.227050781E-2,9.817634125E0,9.818328666E0
4.971560000E0,-1.002914429E-1,6.271957397E-2,9.817634125E0,9.818346700E0
4.981573000E0,-1.005908203E-1,7.304809570E-2,9.809251556E0,9.810039278E0
4.991585000E0,-1.049317932E-1,7.289840698E-2,9.812544708E0,9.813376509E0
5.001597000E0,-1.062789917E-1,6.316864014E-2,9.818532257E0,9.819310627E0
5.011609000E0,-9.834548950E-2,6.017486572E-2,9.822873230E0,9.823549834E0
5.021621000E0,-9.879455566E-2,7.155120850E-2,9.812694397E0,9.813452566E0
5.031633000E0,-9.879455566E-2,6.421646118E-2,9.805359650E0,9.806067610E0
5.041645000E0,-9.849517822E-2,5.867797852E-2,9.811197510E0,9.811867354E0
5.051657000E0,-9.475296021E-2,7.574249268E-2,9.812095642E0,9.812845456E0
5.061669000E0,-9.475296021E-2,6.586303711E-2,9.823322296E0,9.824000051E0
5.071681000E0,-9.624984741E-2,6.436614990E-2,9.815688171E0,9.816371087E0
5.081693000E0,-1.026864624E-1,6.481521606E-2,9.817634125E0,9.818385067E0
5.091705000E0,-8.756790161E-2,5.822891235E-2,9.809101868E0,9.809665550E0
5.101716000E0,-9.385482788E-2,5.972579956E-2,9.808652802E0,9.809283648E0
5.111728000E0,-9.894424438E-2,7.604187012E-2,9.812544708E0,9.813338167E0
5.121740000E0,-1.040336609E-1,6.376739502E-2,9.819131012E0,9.819889160E0
5.131751000E0,-1.046324158E-1,6.391708374E-2,9.813143463E0,9.813909413E0
5.141763000E0,-9.909393311E-2,6.227050781E-2,9.824669495E0,9.825366553E0
5.151774000E0,-1.028361511E-1,6.661148071E-2,9.816137238E0,9.816901886E0
5.161786000E0,-9.804611206E-2,6.915618896E-2,9.826765137E0,9.827497579E0
5.171798000E0,-1.053808594E-1,7.185058594E-2,9.813442841E0,9.814271650E0
5.181810000E0,-9.639953613E-2,5.867797852E-2,9.807455292E0,9.808104571E0
5.191822000E0,-9.520202637E-2,5.987548828E-2,9.809401245E0,9.810045937E0
5.201834000E0,-1.011895752E-1,7.140151978E-2,9.810898132E0,9.811679758E0
5.211846000E0,-9.924362183E-2,6.735992432E-2,9.815089417E0,9.815822274E0
5.221858000E0,-9.550140381E-2,6.556365967E-2,9.813891907E0,9.814575562E0
5.231871000E0,-9.639953613E-2,6.271957397E-2,9.805060272E0,9.805734728E0
5.241886708E0,-9.639953613E-2,5.313949585E-2,9.807455292E0,9.808073000E0
5.251898708E0,-9.804611206E-2,6.197113037E-2,9.801767120E0,9.802453374E0
5.261909708E0,-1.002914429E-1,6.451583862E-2,9.811047821E0,9.811772522E0
5.271920708E0,-8.951385498E-2,6.541397095E-2,9.815688171E0,9.816314278E0
5.281932708E0,-9.624984741E-2,5.733078003E-2,9.806257782E0,9.806897702E0
5.291944708E0,-1.010398865E-1,5.972579956E-2,9.818532257E0,9.819233774E0
5.301956708E0,-1.017883301E-1,6.331832886E-2,9.815538483E0,9.816270462E0
5.311968708E0,-9.909393311E-2,5.598358154E-2,9.810149689E0,9.810809889E0
5.321980708E0,-1.040336609E-1,6.346801758E-2,9.813592529E0,9.814349165E0
5.331992708E0,-1.055305481E-1,5.972579956E-2,9.812245331E0,9.812994563E0
5.342004708E0,-9.415420532E-2,6.601272583E-2,9.802814941E0,9.803489352E0
5.352016708E0,-9.909393311E-2,5.628295898E-2,9.814340973E0,9.815002604E0
5.362029708E0,-9.954299927E-2,6.212081909E-2,9.808802490E0,9.809504274E0
5.372041708E0,-9.056167603E-2,6.646179199E-2,9.809401245E0,9.810044412E0
5.382052708E0,-9.325607300E-2,5.897735596E-2,9.798773346E0,9.799394579E0
5.392064708E0,-9.280700684E-2,6.182144165E-2,9.811496887E0,9.812130564E0
5.402077708E0,-1.026864624E-1,6.466552734E-2,9.811945953E0,9.812696344E0
5.412089708E0,-9.595046997E-2,6.436614990E-2,9.814939728E0,9.815619764E0
5.422100708E0,-9.580078125E-2,6.271957397E-2,9.797276459E0,9.797945578E0
5.432113708E0,-9.669891357E-2,6.391708374E-2,9.806706848E0,9.807391869E0
5.442125708E0,-9.894424438E-2,6.721023560E-2,9.812694397E0,9.813423384E0
5.452137708E0,-9.894424438E-2,6.765930176E-2,9.804162140E0,9.804894850E0
5.462149708E0,-9.924362183E-2,6.301895142E-2,9.803264008E0,9.803968884E0
5.472160708E0,-1.029858398E-1,5.688171387E-2,9.807155914E0,9.807861578E0
5.482172708E0,-1.007405090E-1,6.586303711E-2,9.800419922E0,9.801158974E0
5.492184708E0,-9.131011963E-2,6.017486572E-2,9.801168365E0,9.801778404E0
5.502196708E0,-9.789642334E-2,7.259902954E-2,9.811197510E0,9.811954490E0
5.512208708E0,-9.939331055E-2,7.065307617E-2,9.814640350E0,9.815397908E0
5.522220708E0,-9.864486694E-2,6.331832886E-2,9.801916809E0,9.802617668E0
5.532232708E0,-9.520202637E-2,6.960525513E-2,9.817634125E0,9.818342433E0
5.542244708E0,-8.996292114E-2,6.451583862E-2,9.814490662E0,9.815115005E0
5.552257708E0,-9.595046997E-2,6.107299805E-2,9.814490662E0,9.815149686E0
5.562269708E0,-1.029858398E-1,6.481521606E-2,9.809101868E0,9.809856602E0
5.572281708E0,-9.969268799E-2,6.286926270E-2,9.812095642E0,9.812803476E0
5.582294708E0,-8.921447754E-2,6.421646118E-2,9.808054047E0,9.808669999E0
5.592307708E0,-9.759704590E-2,6.197113037E-2,9.807006226E0,9.807687633E0
5.602320708E0,-1.043330383E-1,6.855743408E-2,9.814191284E0,9.814985281E0
5.612332708E0,-1.002914429E-1,7.155120850E-2,9.811646576E0,9.812420011E0
5.622345708E0,-1.014889526E-1,6.496490479E-2,9.817035370E0,9.817774896E0
5.632358708E0,-1.043330383E-1,7.035369873E-2,9.810000000E0,9.810807053E0
5.642371708E0,-9.490264893E-2,6.721023560E-2,9.806257782E0,9.806947304E0
5.652383708E0,-9.250762939E-2,6.586303711E-2,9.809550934E0,9.810208210E0
5.662395708E0,-9.789642334E-2,6.077362061E-2,9.816137238E0,9.816813506E0
5.672408708E0,-9.954299927E-2,6.870712280E-2,9.807006226E0,9.807752066E0
5.682420708E0,-9.535171509E-2,6.676116943E-2,9.806856537E0,9.807547305E0
5.692432708E0,-1.023870850E-1,6.331832886E-2,9.814340973E0,9.815079269E0
5.702444708E0,-9.520202637E-2,7.110214233E-2,9.815837860E0,9.816557026E0
5.712456708E0,-9.370513916E-2,6.915618896E-2,9.799222412E0,9.799914444E0
5.722468708E0,-9.894424438E-2,6.002517700E-2,9.817484436E0,9.818166511E0
5.732480708E0,-9.654922485E-2,6.197113037E-2,9.802216187E0,9.802887551E0
5.742492708E0,-8.652008057E-2,6.601272583E-2,9.799372101E0,9.799976376E0
5.752504708E0,-8.996292114E-2,5.703140259E-2,9.800569611E0,9.801148433E0
5.762516708E0,-9.131011963E-2,6.601272583E-2,9.810299377E0,9.810946391E0
5.772528708E0,-1.007405090E-1,6.361770630E-2,9.808054047E0,9.808777704E0
5.782540708E0,-1.010398865E-1,5.942642212E-2,9.808802490E0,9.809502885E0
5.792552708E0,-9.909393311E-2,6.511459351E-2,9.821825409E0,9.822541111E0
5.802564708E0,-9.789642334E-2,6.212081909E-2,9.815538483E0,9.816223225E0
5.812576708E0,-9.325607300E-2,6.376739502E-2,9.808353424E0,9.809004020E0
5.822588708E0,-9.505233765E-2,5.942642212E-2,9.809850311E0,9.810490792E0
5.832600708E0,-1.056802368E-1,5.822891235E-2,9.809101868E0,9.809843952E0
5.842612708E0,-9.385482788E-2,6.795867920E-2,9.811945953E0,9.812630152E0
5.852623708E0,-9.595046997E-2,6.780899048E-2,9.809550934E0,9.810254537E0
5.862635708E0,-9.759704590E-2,6.256988525E-2,9.806706848E0,9.807392078E0
5.872648708E0,-1.020877075E-1,6.256988525E-2,9.798773346E0,9.799504884E0
5.882660708E0,-9.849517822E-2,7.155120850E-2,9.802515564E0,9.803271508E0
5.892672708E0,-9.325607300E-2,6.062393188E-2,9.810898132E0,9.811528633E0
5.902683708E0,-9.699829102E-2,6.017486572E-2,9.801916809E0,9.802581436E0
5.912694708E0,-9.460327148E-2,7.155120850E-2,9.811646576E0,9.812363522E0
5.922707708E0,-9.430389404E-2,5.927673340E-2,9.807305603E0,9.807938119E0
5.932719708E0,-9.430389404E-2,6.765930176E-2,9.798623657E0,9.799311026E0
5.942731708E0,-9.550140381E-2,6.706054688E-2,9.806856537E0,9.807550804E0
5.952743708E0,-9.160949707E-2,6.481521606E-2,9.805359650E0,9.806001793E0
5.962755708E0,-1.008901978E-1,6.301895142E-2,9.801168365E0,9.801890203E0
5.972766708E0,-1.041833496E-1,6.810836792E-2,9.799222412E0,9.800012898E0
5.982778708E0,-1.052311707E-1,6.780899048E-2,9.811945953E0,9.812744522E0
5.992790708E0,-1.017883301E-1,7.080276489E-2,9.805209961E0,9.805993895E0
6.002802708E0,-1.085243225E-1,7.020401001E-2,9.805659027E0,9.806510852E0
6.012815708E0,-9.729766846E-2,5.942642212E-2,9.798324280E0,9.798987551E0
6.022827708E0,-9.550140381E-2,5.628295898E-2,9.801617432E0,9.802244262E0
6.032840708E0,-9.205856323E-2,6.840774536E-2,9.809700623E0,9.810371079E0
6.042853708E0,-1.026864624E-1,6.197113037E-2,9.817334747E0,9.818067349E0
6.052865708E0,-1.004411316E-1,6.885681152E-2,9.820328522E0,9.821083543E0
6.062877708E0,-1.007405090E-1,6.002517700E-2,9.808203735E0,9.808904739E0
6.072890708E0,-1.034349060E-1,6.331832886E-2,9.812993774E0,9.813743160E0
6.082902708E0,-9.565109253E-2,6.960525513E-2,9.814340973E0,9.815053884E0
6.092915708E0,-9.924362183E-2,5.942642212E-2,9.806557159E0,9.807239373E0
6.102927708E0,-9.595046997E-2,5.628295898E-2,9.808203735E0,9.808834527E0
6.112939708E0,-9.086105347E-2,7.035369873E-2,9.805209961E0,9.805883323E0
6.122952708E0,-9.759704590E-2,6.765930176E-2,9.804760895E0,9.805480058E0
6.132965708E0,-9.669891357E-2,5.957611084E-2,9.805509338E0,9.806167109E0
6.142977708E0,-1.050814819E-1,5.463638306E-2,9.808652802E0,9.809367820E0
6.152989708E0,-9.819580078E-2,6.586303711E-2,9.813143463E0,9.813855765E0
6.163001708E0,-9.415420532E-2,7.574249268E-2,9.802665253E0,9.803410019E0
6.173013708E0,-9.550140381E-2,6.691085815E-2,9.813592529E0,9.814285298E0
6.183025708E0,-1.043330383E-1,6.092330933E-2,9.810898132E0,9.811642023E0
6.193037708E0,-9.729766846E-2,5.957611084E-2,9.810449066E0,9.811112426E0
6.203050708E0,-9.190887451E-2,6.152206421E-2,9.809700623E0,9.810324078E0
6.213062708E0,-9.460327148E-2,6.750961304E-2,9.812245331E0,9.812933596E0
6.223074708E0,-9.445358276E-2,6.167175293E-2,9.808353424E0,9.809002078E0
6.233087708E0,-9.235794067E-2,6.840774536E-2,9.800419922E0,9.801093829E0
6.243098333E0,-9.834548950E-2,6.780899048E-2,9.800120544E0,9.800848564E0
6.253111333E0,-9.774673462E-2,7.334747314E-2,9.817035370E0,9.817795971E0
6.263123333E0,-1.005908203E-1,7.050338745E-2,9.811047821E0,9.811816783E0
6.273135333E0,-9.909393311E-2,6.421646118E-2,9.815388794E0,9.816099049E0
6.283146333E0,-1.049317932E-1,5.882766724E-2,9.815987549E0,9.816724654E0
6.293158333E0,-9.295669556E-2,6.227050781E-2,9.801018677E0,9.801657292E0
6.303170333E0,-1.031355286E-1,6.556365967E-2,9.809251556E0,9.810012825E0
6.313182333E0,-1.062789917E-1,6.855743408E-2,9.810748444E0,9.811563605E0
6.323194333E0,-9.729766846E-2,7.080276489E-2,9.801617432E0,9.802356051E0
6.333206333E0,-9.101074219E-2,6.137237549E-2,9.808652802E0,9.809267012E0
6.343218333E0,-9.490264893E-2,6.691085815E-2,9.811945953E0,9.812633029E0
6.353230333E0,-1.002914429E-1,6.511459351E-2,9.805509338E0,9.806238406E0
6.363242333E0,-9.445358276E-2,6.167175293E-2,9.793833618E0,9.794483234E0
6.373255333E0,-9.370513916E-2,5.688171387E-2,9.812544708E0,9.813156976E0
6.383267333E0,-9.624984741E-2,6.930587769E-2,9.812395020E0,9.813111808E0
6.393279333E0,-9.490264893E-2,6.242019653E-2,9.806257782E0,9.806915646E0
6.403291333E0,-9.639953613E-2,7.020401001E-2,9.808353424E0,9.809078365E0
6.413304333E0,-1.016386414E-1,6.706054688E-2,9.810598755E0,9.811354415E0
6.423317333E0,-8.397537231E-2,5.957611084E-2,9.806407471E0,9.806947979E0
6.433329333E0,-1.011895752E-1,6.750961304E-2,9.802365875E0,9.803120607E0
6.443341333E0,-8.996292114E-2,5.942642212E-2,9.810449066E0,9.811041520E0
6.453354333E0,-9.699829102E-2,6.616241455E-2,9.812694397E0,9.813396836E0
6.463366333E0,-9.475296021E-2,6.137237549E-2,9.808353424E0,9.809003088E0
6.473379333E0,-9.774673462E-2,6.765930176E-2,9.808802490E0,9.809522848E0
6.483391333E0,-1.016386414E-1,6.496490479E-2,9.801916809E0,9.802659026E0
6.493403333E0,-9.924362183E-2,6.047424316E-2,9.807754669E0,9.808443204E0
6.503416333E0,-8.846603394E-2,6.361770630E-2,9.801318054E0,9.801923742E0
6.513428333E0,-9.295669556E-2,6.571334839E-2,9.818083191E0,9.818743134E0
6.523440333E0,-9.445358276E-2,6.182144165E-2,9.814490662E0,9.815139852E0
6.533453333E0,-9.610015869E-2,6.735992432E-2,9.812993774E0,9.813695503E0
6.543465333E0,-1.016386414E-1,6.376739502E-2,9.814640350E0,9.815373752E0
6.553477333E0,-1.020877075E-1,6.286926270E-2,9.809700623E0,9.810433260E0
6.563489333E0,-1.010398865E-1,6.436614990E-2,9.820029144E0,9.820759872E0
6.573501333E0,-9.669891357E-2,6.676116943E-2,9.818831635E0,9.819534734E0
6.583513333E0,-9.430389404E-2,6.676116943E-2,9.811496887E0,9.812177202E0
6.593526333E0,-9.849517822E-2,6.242019653E-2,9.811047821E0,9.811740770E0
6.603537333E0,-9.624984741E-2,6.706054688E-2,9.811047821E0,9.811749105E0
6.613549333E0,-9.175918579E-2,6.780899048E-2,9.814939728E0,9.815602868E0
6.623561333E0,-9.714797974E-2,7.050338745E-2,9.814041595E0,9.814775642E0
6.633573333E0,-9.804611206E-2,6.526428223E-2,9.804012451E0,9.804719915E0
6.643585333E0,-9.774673462E-2,7.514373779E-2,9.804461517E0,9.805236695E0
6.653597333E0,-9.415420532E-2,6.870712280E-2,9.810598755E0,9.811291129E0
6.663609333E0,-9.729766846E-2,6.481521606E-2,9.808503113E0,9.809199823E0
6.673621333E0,-9.969268799E-2,6.316864014E-2,9.814939728E0,9.815649279E0
6.683634333E0,-9.400451660E-2,6.391708374E-2,9.815688171E0,9.816346394E0
6.693647333E0,-1.032852173E-1,6.331832886E-2,9.811646576E0,9.812394487E0
6.703660333E0,-1.004411316E-1,6.855743408E-2,9.816436615E0,9.817189840E0
6.713673333E0,-9.430389404E-2,6.870712280E-2,9.815239105E0,9.815932589E0
6.723686333E0,-9.924362183E-2,6.436614990E-2,9.812095642E0,9.812808629E0
6.733699333E0,-1.068777466E-1,5.284011841E-2,9.818532257E0,9.819256113E0
6.743711333E0,-9.939331055E-2,5.089416504E-2,9.806856537E0,9.807492257E0
6.753724333E0,-9.610015869E-2,6.541397095E-2,9.811047821E0,9.811736522E0
6.763736333E0,-1.004411316E-1,6.631210327E-2,9.815239105E0,9.815976997E0
6.773748333E0,-9.804611206E-2,5.897735596E-2,9.811796265E0,9.812463366E0
6.783761333E0,-1.028361511E-1,7.020401001E-2,9.811646576E0,9.812436619E0
6.793774333E0,-9.819580078E-2,5.822891235E-2,9.808952179E0,9.809616500E0
6.803787333E0,-1.053808594E-1,6.481521606E-2,9.808952179E0,9.809732361E0
6.813800333E0,-1.043330383E-1,5.897735596E-2,9.822424164E0,9.823155306E0
6.823813333E0,-1.047821045E-1,6.286926270E-2,9.818083191E0,9.818843587E0
6.833826333E0,-1.046324158E-1,5.912704468E-2,9.812544708E0,9.813280675E0
6.843839333E0,-9.954299927E-2,6.975494385E-2,9.808503113E0,9.809256235E0
6.853852333E0,-1.011895752E-1,6.122268677E-2,9.801018677E0,9.801732227E0
6.863865333E0,-9.190887451E-2,6.795867920E-2,9.805209961E0,9.805876198E0
6.873878333E0,-9.789642334E-2,6.541397095E-2,9.817933502E0,9.818639465E0
6.883891333E0,-9.984237671E-2,6.975494385E-2,9.808353424E0,9.809109600E0
6.893903333E0,-9.729766846E-2,6.795867920E-2,9.815837860E0,9.816555308E0
6.903916333E0,-1.023870850E-1,6.915618896E-2,9.809251556E0,9.810029653E0
6.913929333E0,-1.007405090E-1,6.825805664E-2,9.809251556E0,9.810006315E0
6.923941333E0,-9.804611206E-2,7.140151978E-2,9.824519806E0,9.825268476E0
6.933954333E0,-9.804611206E-2,6.840774536E-2,9.810000000E0,9.810728447E0
6.943966333E0,-9.535171509E-2,6.571334839E-2,9.805659027E0,9.806342802E0
6.953979333E0,-9.550140381E-2,6.077362061E-2,9.804611206E0,9.805264650E0
6.963992333E0,-1.029858398E-1,7.125183105E-2,9.816735992E0,9.817534744E0
6.974005333E0,-9.759704590E-2,6.721023560E-2,9.817035370E0,9.817750550E0
6.984019333E0,-9.250762939E-2,6.301895142E-2,9.816735992E0,9.817374119E0
6.994032333E0,-1.004411316E-1,6.376739502E-2,9.805209961E0,9.805931729E0
7.004045333E0,-1.001417542E-1,5.583389282E-2,9.815987549E0,9.816657137E0
7.014057333E0,-1.025367737E-1,6.466552734E-2,9.808054047E0,9.808803169E0
7.024070333E0,-9.879455566E-2,6.721023560E-2,9.810748444E0,9.811476067E0
7.034084333E0,-9.430389404E-2,6.346801758E-2,9.806557159E0,9.807215952E0
7.044097333E0,-9.280700684E-2,5.972579956E-2,9.817634125E0,9.818254433E0
7.054111333E0,-9.565109253E-2,6.526428223E-2,9.813592529E0,9.814275668E0
7.064125333E0,-9.445358276E-2,6.586303711E-2,9.809550934E0,9.810226753E0
7.074138333E0,-9.295669556E-2,7.065307617E-2,9.808802490E0,9.809497393E0
7.084151333E0,-9.984237671E-2,6.526428223E-2,9.805359650E0,9.806085141E0
7.094163333E0,-1.002914429E-1,7.229965210E-2,9.814490662E0,9.815269357E0
7.104176333E0,-1.014889526E-1,6.346801758E-2,9.814191284E0,9.814921230E0
7.114189333E0,-9.325607300E-2,6.286926270E-2,9.805808716E0,9.806453682E0
7.124202333E0,-9.744735718E-2,6.436614990E-2,9.801916809E0,9.802612515E0
7.134214333E0,-9.819580078E-2,6.930587769E-2,9.802964630E0,9.803701406E0
7.144227333E0,-1.025367737E-1,6.256988525E-2,9.815089417E0,9.815824420E0
7.154240333E0,-9.999206543E-2,6.975494385E-2,9.806257782E0,9.807015645E0
7.164253333E0,-9.610015869E-2,6.212081909E-2,9.808203735E0,9.808871227E0
7.174265333E0,-9.580078125E-2,5.792953491E-2,9.815688171E0,9.816326599E0
7.184278333E0,-9.759704590E-2,6.765930176E-2,9.811945953E0,9.812664590E0
7.194290333E0,-1.026864624E-1,7.050338745E-2,9.816436615E0,9.817226851E0
7.204303333E0,-9.400451660E-2,6.915618896E-2,9.815239105E0,9.815932871E0
7.214316333E0,-9.056167603E-2,7.020401001E-2,9.806557159E0,9.807226588E0
7.224328333E0,-9.984237671E-2,6.990463257E-2,9.818083191E0,9.818839682E0
7.234341333E0,-9.610015869E-2,5.643264771E-2,9.813891907E0,9.814524657E0
7.244354333E0,-9.684860229E-2,6.421646118E-2,9.827962646E0,9.828649612E0
7.254366333E0,-9.729766846E-2,7.364685059E-2,9.807155914E0,9.807915060E0
7.264379333E0,-1.028361511E-1,6.466552734E-2,9.807155914E0,9.807908239E0
7.274391333E0,-9.235794067E-2,6.227050781E-2,9.806257782E0,9.806890399E0
7.284403333E0,-9.355545044E-2,7.289840698E-2,9.817185059E0,9.817901470E0
7.294416333E0,-9.774673462E-2,6.855743408E-2,9.802814941E0,9.803541978E0
7.304427333E0,-1.053808594E-1,6.556365967E-2,9.811047821E0,9.811832809E0
7.314439333E0,-9.684860229E-2,6.855743408E-2,9.804760895E0,9.805478875E0
7.324450333E0,-9.370513916E-2,5.777984619E-2,9.812844086E0,9.813461582E0
7.334462333E0,-9.819580078E-2,6.541397095E-2,9.806856537E0,9.807566290E0
7.344474333E0,-1.001417542E-1,6.721023560E-2,9.814490662E0,9.815231660E0
7.354486333E0,-9.699829102E-2,5.897735596E-2,9.812095642E0,9.812752309E0
7.364497333E0,-9.639953613E-2,6.481521606E-2,9.815987549E0,9.816674867E0
7.374509333E0,-8.816665649E-2,6.676116943E-2,9.803413696E0,9.804037460E0
7.384521333E0,-9.475296021E-2,6.945556641E-2,9.817933502E0,9.818636385E0
7.394533333E0,-8.891510010E-2,6.391708374E-2,9.803114319E0,9.803725906E0
7.404545333E0,-8.696914673E-2,6.735992432E-2,9.807904358E0,9.808521238E0
7.414557333E0,-9.295669556E-2,6.197113037E-2,9.818831635E0,9.819467197E0
7.424569333E0,-9.789642334E-2,7.080276489E-2,9.816885681E0,9.817629104E0
7.434581333E0,-1.023870850E-1,6.077362061E-2,9.807305603E0,9.808028331E0
7.444592333E0,-9.654922485E-2,6.421646118E-2,9.814191284E0,9.814876264E0
7.454605333E0,-8.681945801E-2,6.631210327E-2,9.819580078E0,9.820187769E0
7.464617333E0,-9.550140381E-2,6.885681152E-2,9.811646576E0,9.812352945E0
7.474629333E0,-9.415420532E-2,6.301895142E-2,9.808802490E0,9.809456799E0
7.484641333E0,-9.729766846E-2,6.840774536E-2,9.802515564E0,9.803237110E0
7.494653333E0,-9.610015869E-2,6.646179199E-2,9.809251556E0,9.809947426E0
7.504666333E0,-1.007405090E-1,7.259902954E-2,9.815089417E0,9.815874873E0
7.514678333E0,-1.014889526E-1,7.095245361E-2,9.816586304E0,9.817367311E0
7.524690333E0,-9.744735718E-2,5.972579956E-2,9.810149689E0,9.810815464E0
7.534701333E0,-9.056167603E-2,7.873626709E-2,9.801318054E0,9.802052663E0
7.544713333E0,-9.430389404E-2,5.718109131E-2,9.808952179E0,9.809572149E0
7.554724333E0,-9.804611206E-2,6.900650024E-2,9.815388794E0,9.816121032E0
7.564736333E0,-9.160949707E-2,6.870712280E-2,9.808952179E0,9.809620575E0
7.574748333E0,-9.550140381E-2,6.391708374E-2,9.805060272E0,9.805733672E0
7.584760333E0,-1.055305481E-1,7.035369873E-2,9.806557159E0,9.807377308E0
7.594772333E0,-9.475296021E-2,6.017486572E-2,9.817035370E0,9.817677047E0
7.604784333E0,-9.535171509E-2,6.481521606E-2,9.820029144E0,9.820705950E0
7.614796333E0,-9.774673462E-2,6.167175293E-2,9.810299377E0,9.810980160E0
7.624808333E0,-1.026864624E-1,5.164260864E-2,9.815388794E0,9.816061769E0
7.634819333E0,-1.002914429E-1,6.152206421E-2,9.817035370E0,9.817740412E0
7.644830333E0,-9.160949707E-2,6.271957397E-2,9.816586304E0,9.817214101E0
7.654841333E0,-8.936416626E-2,7.723937988E-2,9.813891907E0,9.814602704E0
7.664853333E0,-9.145980835E-2,6.795867920E-2,9.815089417E0,9.815750788E0
7.674864333E0,-9.490264893E-2,6.107299805E-2,9.809550934E0,9.810200097E0
7.684875333E0,-9.924362183E-2,5.882766724E-2,9.806856537E0,9.807535120E0
7.694887333E0,-9.744735718E-2,6.331832886E-2,9.815688171E0,9.816376087E0
7.704898333E0,-1.055305481E-1,6.047424316E-2,9.812245331E0,9.812999147E0
7.714909333E0,-9.804611206E-2,6.706054688E-2,9.822873230E0,9.823591433E0
7.724920333E0,-9.490264893E-2,6.586303711E-2,9.811197510E0,9.811877549E0
7.734931333E0,-1.001417542E-1,6.391708374E-2,9.813891907E0,9.814610951E0
7.744943333E0,-9.894424438E-2,6.601272583E-2,9.820178833E0,9.820899142E0
7.754954333E0,-8.801696777E-2,6.182144165E-2,9.822124786E0,9.822713688E0
7.764965333E0,-9.984237671E-2,7.020401001E-2,9.818981323E0,9.819739881E0
7.774977333E0,-9.654922485E-2,6.855743408E-2,9.799671478E0,9.800386878E0
7.784988333E0,-9.131011963E-2,6.421646118E-2,9.812694397E0,9.813329334E0
7.795000333E0,-8.831634521E-2,6.406677246E-2,9.813143463E0,9.813749995E0
7.805011333E0,-1.013392639E-1,5.792953491E-2,9.815837860E0,9.816531891E0
7.815022333E0,-1.023870850E-1,6.451583862E-2,9.810149689E0,9.810896102E0
7.825034333E0,-9.654922485E-2,5.807922363E-2,9.814191284E0,9.814838028E0
7.835045333E0,-9.744735718E-2,6.227050781E-2,9.823471985E0,9.824152658E0
7.845055333E0,-9.894424438E-2,7.768844604E-2,9.818382568E0,9.819188445E0
7.855066333E0,-1.007405090E-1,6.631210327E-2,9.817484436E0,9.818225226E0
7.865078333E0,-9.954299927E-2,5.987548828E-2,9.823022919E0,9.823709744E0
7.875089333E0,-9.984237671E-2,6.391708374E-2,9.814640350E0,9.815356290E0
7.885101333E0,-1.026864624E-1,7.125183105E-2,9.814790039E0,9.815585813E0
7.895112333E0,-9.505233765E-2,6.107299805E-2,9.818831635E0,9.819481632E0
7.905123333E0,-9.624984741E-2,6.466552734E-2,9.813293152E0,9.813978202E0
7.915135333E0,-9.894424438E-2,6.900650024E-2,9.810748444E0,9.811490044E0
7.925147333E0,-9.759704590E-2,6.496490479E-2,9.805659027E0,9.806359905E0
7.935158333E0,-9.744735718E-2,6.825805664E-2,9.813143463E0,9.813864671E0
7.945170333E0,-9.430389404E-2,6.885681152E-2,9.815987549E0,9.816682028E0
7.955181333E0,-1.014889526E-1,6.197113037E-2,9.808652802E0,9.809373589E0
7.965193333E0,-9.939331055E-2,6.945556641E-2,9.822124786E0,9.822873227E0
7.975204333E0,-9.145980835E-2,6.960525513E-2,9.817783813E0,9.818456538E0
7.985216333E0,-1.037342834E-1,6.301895142E-2,9.819131012E0,9.819881161E0
7.995227333E0,-1.004411316E-1,6.481521606E-2,9.814490662E0,9.815218611E0
8.005239333E0,-9.116043091E-2,6.271957397E-2,9.801467743E0,9.802092322E0
8.015250333E0,-9.295669556E-2,6.301895142E-2,9.802216187E0,9.802859506E0
8.025262333E0,-9.041198730E-2,7.334747314E-2,9.810748444E0,9.811439201E0
8.035273333E0,-1.019380188E-1,6.526428223E-2,9.809700623E0,9.810447344E0
8.045285333E0,-1.043330383E-1,6.361770630E-2,9.810598755E0,9.811359769E0
8.055296333E0,-9.400451660E-2,6.271957397E-2,9.813293152E0,9.813943809E0
8.065308333E0,-8.502319336E-2,7.544311523E-2,9.804012451E0,9.804671374E0
8.075319333E0,-1.073268127E-1,6.197113037E-2,9.801617432E0,9.802400917E0
8.085330333E0,-1.001417542E-1,5.987548828E-2,9.810149689E0,9.810843509E0
8.095342333E0,-9.909393311E-2,6.391708374E-2,9.824519806E0,9.825227449E0
8.105353333E0,-1.050814819E-1,6.496490479E-2,9.808652802E0,9.809430786E0
8.115365333E0,-9.624984741E-2,6.242019653E-2,9.807006226E0,9.807677168E0
8.125377333E0,-9.475296021E-2,6.361770630E-2,9.812245331E0,9.812909037E0
8.135389333E0,-1.056802368E-1,6.346801758E-2,9.824070740E0,9.824844141E0
8.145400333E0,-9.789642334E-2,7.185058594E-2,9.812993774E0,9.813745107E0
8.155412333E0,-9.999206543E-2,6.227050781E-2,9.811945953E0,9.812653027E0
8.165423333E0,-9.595046997E-2,6.212081909E-2,9.810000000E0,9.810665904E0
8.175434333E0,-8.786727905E-2,6.571334839E-2,9.817185059E0,9.817798194E0
8.185445333E0,-9.595046997E-2,5.867797852E-2,9.811646576E0,9.812291176E0
8.195457333E0,-1.017883301E-1,6.391708374E-2,9.814191284E0,9.814927245E0
8.205469333E0,-9.669891357E-2,7.259902954E-2,9.807155914E0,9.807901326E0
8.215480333E0,-1.028361511E-1,6.885681152E-2,9.808652802E0,9.809433537E0
8.225491333E0,-9.774673462E-2,6.810836792E-2,9.811047821E0,9.811771120E0
8.235503333E0,-9.714797974E-2,6.706054688E-2,9.814640350E0,9.815350226E0
8.245516208E0,-9.864486694E-2,6.825805664E-2,9.806557159E0,9.807290823E0
8.255528208E0,-1.025367737E-1,6.616241455E-2,9.811796265E0,9.812555080E0
8.265539208E0,-9.101074219E-2,6.646179199E-2,9.811197510E0,9.811844714E0
8.275551208E0,-1.089733887E-1,6.092330933E-2,9.809101868E0,9.809896345E0
8.285562208E0,-1.016386414E-1,5.613327026E-2,9.808054047E0,9.808741282E0
8.295573208E0,-1.025367737E-1,6.900650024E-2,9.811197510E0,9.811975961E0
8.305584208E0,-1.038839722E-1,7.529342651E-2,9.809550934E0,9.810389926E0
8.315596208E0,-9.774673462E-2,6.855743408E-2,9.815239105E0,9.815965222E0
8.325607208E0,-9.744735718E-2,7.080276489E-2,9.807305603E0,9.808045280E0
8.335619208E0,-9.145980835E-2,6.646179199E-2,9.810449066E0,9.811100496E0
8.345631208E0,-9.475296021E-2,5.822891235E-2,9.804760895E0,9.805391626E0
8.355643208E0,-1.011895752E-1,6.167175293E-2,9.811197510E0,9.811913132E0
8.365655208E0,-9.744735718E-2,6.376739502E-2,9.808802490E0,9.809493797E0
8.375666208E0,-9.475296021E-2,6.242019653E-2,9.811646576E0,9.812302632E0
8.385678208E0,-1.004411316E-1,7.080276489E-2,9.819729767E0,9.820498671E0
8.395690208E0,-1.071771240E-1,5.763015747E-2,9.822873230E0,9.823626961E0
8.405702208E0,-9.550140381E-2,6.017486572E-2,9.813592529E0,9.814241686E0
8.415713208E0,-8.801696777E-2,8.023315430E-2,9.812993774E0,9.813716481E0
8.425724208E0,-9.355545044E-2,7.065307617E-2,9.822274475E0,9.822974109E0
8.435736208E0,-9.520202637E-2,7.065307617E-2,9.818232880E0,9.818948628E0
8.445748208E0,-1.046324158E-1,6.541397095E-2,9.812395020E0,9.813170892E0
8.455759208E0,-1.016386414E-1,6.870712280E-2,9.801467743E0,9.802235510E0
8.465770208E0,-9.789642334E-2,6.122268677E-2,9.815987549E0,9.816666618E0
8.475782208E0,-1.005908203E-1,6.601272583E-2,9.804461517E0,9.805199735E0
8.485794208E0,-9.669891357E-2,6.825805664E-2,9.823471985E0,9.824185039E0
8.495805208E0,-9.250762939E-2,6.721023560E-2,9.815837860E0,9.816503847E0
8.505816208E0,-9.954299927E-2,6.331832886E-2,9.799821167E0,9.800531257E0
8.515827208E0,-9.595046997E-2,6.571334839E-2,9.804760895E0,9.805450573E0
8.525839208E0,-9.475296021E-2,6.885681152E-2,9.820927277E0,9.821625729E0
8.535850208E0,-1.026864624E-1,6.466552734E-2,9.812395020E0,9.813145375E0
8.545861208E0,-9.834548950E-2,6.511459351E-2,9.819280701E0,9.819989064E0
8.555872208E0,-9.190887451E-2,6.780899048E-2,9.813891907E0,9.814556519E0
8.565883208E0,-1.013392639E-1,6.376739502E-2,9.805209961E0,9.805940970E0
8.575894208E0,-1.007405090E-1,7.020401001E-2,9.819430389E0,9.820198085E0
8.585906208E0,-8.756790161E-2,6.152206421E-2,9.807305603E0,9.807889492E0
8.595917208E0,-1.038839722E-1,6.481521606E-2,9.815089417E0,9.815853154E0
8.605927208E0,-9.310638428E-2,6.286926270E-2,9.807754669E0,9.808398085E0
8.615939208E0,-9.624984741E-2,6.451583862E-2,9.811796265E0,9.812480434E0
8.625950208E0,-9.654922485E-2,6.167175293E-2,9.815538483E0,9.816207051E0
8.635961208E0,-1.031355286E-1,6.286926270E-2,9.820328522E0,9.821071314E0
8.645973208E0,-1.058299255E-1,5.957611084E-2,9.818981323E0,9.819732354E0
8.655984208E0,-9.325607300E-2,6.346801758E-2,9.816885681E0,9.817533772E0
8.665995208E0,-9.774673462E-2,6.646179199E-2,9.810299377E0,9.811011440E0
8.676006208E0,-9.295669556E-2,7.005432129E-2,9.808952179E0,9.809642777E0
8.686018208E0,-9.175918579E-2,6.406677246E-2,9.817783813E0,9.818421630E0
8.696030208E0,-1.038839722E-1,6.316864014E-2,9.816885681E0,9.817638547E0
8.706041208E0,-1.007405090E-1,6.227050781E-2,9.815987549E0,9.816701983E0
8.716053208E0,-9.954299927E-2,7.289840698E-2,9.818382568E0,9.819157767E0
8.726064208E0,-9.699829102E-2,5.777984619E-2,9.826465759E0,9.827114353E0
8.736075208E0,-1.001417542E-1,6.556365967E-2,9.812844086E0,9.813574069E0
8.746087208E0,-9.550140381E-2,6.855743408E-2,9.818831635E0,9.819535392E0
8.756099208E0,-9.999206543E-2,6.376739502E-2,9.823172607E0,9.823888475E0
8.766110208E0,-1.022373962E-1,6.840774536E-2,9.820029144E0,9.820799586E0
8.776122208E0,-9.550140381E-2,6.526428223E-2,9.801916809E0,9.802599302E0
8.786133208E0,-9.011260986E-2,6.721023560E-2,9.813442841E0,9.814086707E0
8.796144208E0,-9.924362183E-2,7.005432129E-2,9.807604980E0,9.808357271E0
8.806156208E0,-9.774673462E-2,5.388793945E-2,9.820328522E0,9.820962815E0
8.816167208E0,-9.849517822E-2,5.777984619E-2,9.809700623E0,9.810365239E0
8.826178208E0,-9.460327148E-2,6.197113037E-2,9.817334747E0,9.817986135E0
8.836189208E0,-9.924362183E-2,6.361770630E-2,9.814041595E0,9.814749561E0
8.846200208E0,-1.059796143E-1,6.481521606E-2,9.808203735E0,9.808990427E0
8.856211208E0,-1.074765015E-1,6.406677246E-2,9.809101868E0,9.809899857E0
8.866222208E0,-1.022373962E-1,5.613327026E-2,9.818382568E0,9.819075297E0
8.876234208E0,-1.014889526E-1,6.631210327E-2,9.805659027E0,9.806408428E0
8.886244208E0,-9.714797974E-2,6.391708374E-2,9.810449066E0,9.811138262E0
8.896255208E0,-9.984237671E-2,6.526428223E-2,9.820029144E0,9.820753552E0
8.906265208E0,-9.385482788E-2,7.020401001E-2,9.809850311E0,9.810550467E0
8.916277208E0,-9.804611206E-2,6.406677246E-2,9.808652802E0,9.809352036E0
8.926288208E0,-1.019380188E-1,5.718109131E-2,9.811945953E0,9.812642072E0
8.936299208E0,-1.044827271E-1,6.182144165E-2,9.810149689E0,9.810900848E0
8.946310208E0,-9.804611206E-2,6.721023560E-2,9.814790039E0,9.815509858E0
8.956321208E0,-9.145980835E-2,6.825805664E-2,9.812395020E0,9.813058651E0
8.966331208E0,-9.595046997E-2,6.301895142E-2,9.815837860E0,9.816509093E0
8.976342208E0,-1.002914429E-1,6.960525513E-2,9.817334747E0,9.818093746E0
8.986353208E0,-9.430389404E-2,7.170089722E-2,9.821076965E0,9.821791435E0
8.996364208E0,-1.007405090E-1,6.152206421E-2,9.820178833E0,9.820888245E0
9.006375208E0,-9.610015869E-2,6.182144165E-2,9.816735992E0,9.817401014E0
9.016385208E0,-9.864486694E-2,6.137237549E-2,9.818532257E0,9.819219575E0
9.026397208E0,-9.310638428E-2,6.646179199E-2,9.820927277E0,9.821593483E0
9.036409208E0,-9.789642334E-2,6.556365967E-2,9.815388794E0,9.816095939E0
9.046420208E0,-9.714797974E-2,6.795867920E-2,9.820927277E0,9.821642871E0
9.056431208E0,-9.639953613E-2,6.795867920E-2,9.810598755E0,9.811307720E0
9.066443208E0,-9.729766846E-2,6.915618896E-2,9.812694397E0,9.813420441E0
9.076454208E0,-9.520202637E-2,7.035369873E-2,9.808503113E0,9.809217419E0
9.086466208E0,-9.864486694E-2,5.957611084E-2,9.818981323E0,9.819657547E0
9.096478208E0,-9.774673462E-2,6.316864014E-2,9.818532257E0,9.819221985E0
9.106490208E0,-9.131011963E-2,7.125183105E-2,9.816586304E0,9.817269530E0
9.116502208E0,-9.654922485E-2,6.406677246E-2,9.810000000E0,9.810684293E0
9.126513208E0,-9.774673462E-2,6.481521606E-2,9.815538483E0,9.816239155E0
9.136524208E0,-9.714797974E-2,7.170089722E-2,9.822723541E0,9.823465606E0
9.146535208E0,-9.639953613E-2,5.957611084E-2,9.819430389E0,9.820084285E0
9.156546208E0,-9.520202637E-2,6.017486572E-2,9.815837860E0,9.816483960E0
9.166557208E0,-9.744735718E-2,6.406677246E-2,9.810898132E0,9.811591242E0
9.176568208E0,-9.969268799E-2,6.002517700E-2,9.819430389E0,9.820119899E0
9.186580208E0,-1.050814819E-1,6.301895142E-2,9.816137238E0,9.816901944E0
9.196592208E0,-1.023870850E-1,6.765930176E-2,9.815987549E0,9.816754680E0
9.206603208E0,-9.370513916E-2,6.900650024E-2,9.818981323E0,9.819670910E0
9.216615208E0,-9.370513916E-2,6.122268677E-2,9.815538483E0,9.816176678E0
9.226627208E0,-1.013392639E-1,5.957611084E-2,9.805209961E0,9.805914610E0
9.236639208E0,-9.445358276E-2,6.256988525E-2,9.817783813E0,9.818437527E0
9.246649833E0,-1.035845947E-1,5.897735596E-2,9.816735992E0,9.817459633E0
9.256661833E0,-9.744735718E-2,6.721023560E-2,9.815538483E0,9.816252284E0
9.266673833E0,-9.804611206E-2,7.065307617E-2,9.818232880E0,9.818976616E0
9.276684833E0,-9.340576172E-2,5.912704468E-2,9.812544708E0,9.813167394E0
9.286695833E0,-9.445358276E-2,6.227050781E-2,9.807904358E0,9.808556825E0
9.296706833E0,-8.637039185E-2,6.496490479E-2,9.809401245E0,9.809996589E0
9.306718833E0,-9.190887451E-2,5.508544922E-2,9.807305603E0,9.807890948E0
9.316729833E0,-9.714797974E-2,6.900650024E-2,9.813293152E0,9.814016615E0
9.326742833E0,-9.535171509E-2,6.152206421E-2,9.810898132E0,9.811554366E0
9.336754833E0,-1.059796143E-1,6.765930176E-2,9.807155914E0,9.807961898E0
9.346765833E0,-9.744735718E-2,6.451583862E-2,9.816286926E0,9.816982596E0
9.356777833E0,-8.981323242E-2,5.733078003E-2,9.821076965E0,9.821654952E0
9.366788833E0,-9.565109253E-2,6.466552734E-2,9.812844086E0,9.813523313E0
9.376800833E0,-9.071136475E-2,6.631210327E-2,9.813592529E0,9.814235792E0
9.386811833E0,-9.999206543E-2,6.795867920E-2,9.812844086E0,9.813588836E0
9.396823833E0,-9.804611206E-2,7.768844604E-2,9.821825409E0,9.822621997E0
9.406834833E0,-1.038839722E-1,6.930587769E-2,9.819580078E0,9.820374132E0
9.416846833E0,-9.909393311E-2,6.286926270E-2,9.804611206E0,9.805313511E0
9.426858833E0,-9.684860229E-2,5.643264771E-2,9.812844086E0,9.813484261E0
9.436869833E0,-9.520202637E-2,6.331832886E-2,9.817933502E0,9.818599233E0
9.446882833E0,-9.445358276E-2,6.780899048E-2,9.813143463E0,9.813832287E0
9.456894833E0,-9.250762939E-2,6.541397095E-2,9.825417938E0,9.826071153E0
9.466906833E0,-1.016386414E-1,6.750961304E-2,9.813442841E0,9.814201361E0
9.476918833E0,-9.669891357E-2,6.840774536E-2,9.804910583E0,9.805626030E0
9.486930833E0,-1.029858398E-1,6.750961304E-2,9.813442841E0,9.814215405E0
9.496942833E0,-1.001417542E-1,6.900650024E-2,9.815239105E0,9.815992510E0
9.506954833E0,-1.007405090E-1,5.298980713E-2,9.818681946E0,9.819341715E0
9.516966833E0,-1.017883301E-1,6.197113037E-2,9.821226654E0,9.821949617E0
9.526978833E0,-9.849517822E-2,6.646179199E-2,9.817783813E0,9.818502812E0
9.536989833E0,-1.004411316E-1,6.152206421E-2,9.821825409E0,9.822531636E0
9.547000833E0,-9.370513916E-2,6.451583862E-2,9.809700623E0,9.810360302E0
9.557012833E0,-9.939331055E-2,5.418731689E-2,9.813592529E0,9.814245444E0
9.567023833E0,-1.023870850E-1,6.840774536E-2,9.815538483E0,9.816310837E0
9.577034833E0,-9.550140381E-2,6.721023560E-2,9.813442841E0,9.814137666E0
9.587046833E0,-9.280700684E-2,7.035369873E-2,9.813742218E0,9.814433203E0
9.597058833E0,-9.160949707E-2,6.481521606E-2,9.818981323E0,9.819622576E0
9.607070833E0,-9.385482788E-2,6.047424316E-2,9.810449066E0,9.811084382E0
9.617081833E0,-9.385482788E-2,6.541397095E-2,9.824070740E0,9.824736822E0
9.627092833E0,-9.834548950E-2,6.661148071E-2,9.816735992E0,9.817454582E0
9.637104833E0,-9.789642334E-2,6.735992432E-2,9.808054047E0,9.808773891E0
9.647116833E0,-9.744735718E-2,7.274871826E-2,9.817035370E0,9.817788540E0
9.657128833E0,-9.205856323E-2,6.616241455E-2,9.812544708E0,9.813199575E0
9.667141833E0,-1.068777466E-1,6.331832886E-2,9.808054047E0,9.808840719E0
9.677153833E0,-1.028361511E-1,6.421646118E-2,9.814790039E0,9.815538831E0
9.687165833E0,-9.774673462E-2,6.571334839E-2,9.817334747E0,9.818041261E0
9.697177833E0,-9.565109253E-2,6.646179199E-2,9.810299377E0,9.810990785E0
9.707189833E0,-9.505233765E-2,7.080276489E-2,9.814340973E0,9.815056633E0
9.717201833E0,-9.864486694E-2,6.765930176E-2,9.825717316E0,9.826445408E0
9.727213833E0,-1.059796143E-1,6.227050781E-2,9.816286926E0,9.817056499E0
9.737226833E0,-9.490264893E-2,6.556365967E-2,9.823771362E0,9.824448528E0
9.747238833E0,-9.490264893E-2,7.005432129E-2,9.822424164E0,9.823132422E0
9.757250833E0,-9.460327148E-2,6.780899048E-2,9.830806732E0,9.831495758E0
9.767262833E0,-1.067280579E-1,6.960525513E-2,9.826166382E0,9.826992497E0
9.777275833E0,-9.789642334E-2,6.661148071E-2,9.814490662E0,9.815204926E0
9.787287833E0,-9.669891357E-2,6.242019653E-2,9.820029144E0,9.820703608E0
9.797300833E0,-1.011895752E-1,7.424560547E-2,9.811796265E0,9.812598926E0
9.807312833E0,-1.022373962E-1,6.421646118E-2,9.820927277E0,9.821669350E0
9.817324833E0,-9.415420532E-2,6.376739502E-2,9.816885681E0,9.817544284E0
9.827337833E0,-1.008901978E-1,6.256988525E-2,9.808503113E0,9.809221536E0
9.837349833E0,-9.879455566E-2,6.421646118E-2,9.821526031E0,9.822232827E0
9.847361833E0,-1.023870850E-1,7.364685059E-2,9.811197510E0,9.812008130E0
9.857373833E0,-1.037342834E-1,7.484436035E-2,9.814191284E0,9.815024862E0
9.867385833E0,-1.013392639E-1,7.304809570E-2,9.814939728E0,9.815734691E0
9.877397833E0,-1.008901978E-1,7.334747314E-2,9.822274475E0,9.823066453E0
9.887409833E0,-9.729766846E-2,6.795867920E-2,9.814191284E0,9.814908852E0
9.897422833E0,-9.639953613E-2,5.972579956E-2,9.818083191E0,9.818738085E0
9.907434833E0,-1.086740112E-1,5.912704468E-2,9.818831635E0,9.819611027E0
9.917445833E0,-1.037342834E-1,5.837860107E-2,9.811646576E0,9.812368592E0
9.927457833E0,-9.535171509E-2,7.753875732E-2,9.822873230E0,9.823642028E0
9.937469833E0,-9.999206543E-2,7.125183105E-2,9.808054047E0,9.808822530E0
9.947481833E0,-9.595046997E-2,6.945556641E-2,9.819430389E0,9.820144792E0
9.957493833E0,-9.550140381E-2,6.481521606E-2,9.817185059E0,9.817863515E0
9.967505833E0,-9.999206543E-2,5.957611084E-2,9.815987549E0,9.816677609E0
9.977517833E0,-1.031355286E-1,7.185058594E-2,9.821226654E0,9.822030973E0
9.987529833E0,-9.669891357E-2,6.975494385E-2,9.811197510E0,9.811921983E0
9.997540833E0,-1.002914429E-1,6.706054688E-2,9.819131012E0,9.819872164E0
1.000755283E1,-1.001417542E-1,6.721023560E-2,9.815239105E0,9.815980047E0
1.001756383E1,-1.032852173E-1,5.763015747E-2,9.810449066E0,9.811162008E0
1.002757583E1,-9.505233765E-2,6.855743408E-2,9.815987549E0,9.816687151E0
1.003758683E1,-9.774673462E-2,6.242019653E-2,9.819729767E0,9.820414625E0
1.004759783E1,-9.460327148E-2,5.538482666E-2,9.823322296E0,9.823933947E0
1.005760983E1,-9.984237671E-2,6.541397095E-2,9.819580078E0,9.820305515E0
1.006762183E1,-9.580078125E-2,6.541397095E-2,9.816286926E0,9.816972333E0
1.007763383E1,-1.029858398E-1,7.200027466E-2,9.820777588E0,9.821581469E0
1.008764583E1,-9.999206543E-2,6.511459351E-2,9.827513580E0,9.828237965E0
1.009765683E1,-9.849517822E-2,6.571334839E-2,9.815239105E0,9.815953252E0
1.010766883E1,-1.029858398E-1,6.616241455E-2,9.804311829E0,9.805075929E0
1.011768183E1,-1.019380188E-1,6.556365967E-2,9.820178833E0,9.820926752E0
1.012769283E1,-9.804611206E-2,7.604187012E-2,9.814640350E0,9.815424627E0
1.013770483E1,-1.011895752E-1,6.960525513E-2,9.810748444E0,9.811517173E0
1.014771583E1,-1.034349060E-1,7.020401001E-2,9.829758911E0,9.830553781E0
1.015772683E1,-9.699829102E-2,6.271957397E-2,9.825268250E0,9.825947211E0
1.016773883E1,-9.729766846E-2,7.185058594E-2,9.817185059E0,9.817930119E0
1.017774983E1,-1.007405090E-1,6.840774536E-2,9.814041595E0,9.814797028E0
1.018776183E1,-1.019380188E-1,6.975494385E-2,9.817334747E0,9.818111766E0
1.019777283E1,-9.669891357E-2,6.391708374E-2,9.826016693E0,9.826700368E0
1.020778483E1,-9.280700684E-2,6.256988525E-2,9.819729767E0,9.820367652E0
1.021779683E1,-9.175918579E-2,7.694000244E-2,9.820328522E0,9.821058588E0
1.022780883E1,-9.669891357E-2,6.286926270E-2,9.818382568E0,9.819060010E0
1.023781733E1,-9.400451660E-2,5.538482666E-2,9.802216187E0,9.802823394E0
1.024782933E1,-9.759704590E-2,6.571334839E-2,9.816735992E0,9.817441060E0
1.025784233E1,-1.014889526E-1,6.271957397E-2,9.818532257E0,9.819257071E0
1.026785433E1,-9.400451660E-2,6.571334839E-2,9.814340973E0,9.815011148E0
1.027786633E1,-9.654922485E-2,6.795867920E-2,9.817334747E0,9.818044697E0
1.028787833E1,-9.924362183E-2,6.631210327E-2,9.817634125E0,9.818359659E0
1.029789033E1,-9.954299927E-2,6.810836792E-2,9.809401245E0,9.810142728E0
1.030790133E1,-9.879455566E-2,7.185058594E-2,9.816586304E0,9.817346359E0
1.031791233E1,-1.020877075E-1,7.050338745E-2,9.805359650E0,9.806144527E0
1.032792333E1,-9.864486694E-2,6.391708374E-2,9.802814941E0,9.803519622E0
1.033793533E1,-9.999206543E-2,6.691085815E-2,9.819430389E0,9.820167445E0
1.034794633E1,-9.909393311E-2,6.511459351E-2,9.818083191E0,9.818799166E0
1.035795733E1,-9.669891357E-2,5.957611084E-2,9.812844086E0,9.813501365E0
1.036796933E1,-9.175918579E-2,6.825805664E-2,9.830657043E0,9.831322231E0
1.037798033E1,-1.053808594E-1,6.810836792E-2,9.816137238E0,9.816939143E0
1.038799233E1,-9.984237671E-2,6.376739502E-2,9.824669495E0,9.825383731E0
1.039800433E1,-1.032852173E-1,6.346801758E-2,9.817783813E0,9.818532224E0
1.040801533E1,-9.774673462E-2,6.855743408E-2,9.813143463E0,9.813869735E0
1.041802733E1,-1.019380188E-1,6.945556641E-2,9.820927277E0,9.821701890E0
1.042803933E1,-9.894424438E-2,6.721023560E-2,9.809850311E0,9.810579509E0
1.043805033E1,-1.016386414E-1,6.855743408E-2,9.805209961E0,9.805976388E0
1.044806233E1,-9.520202637E-2,6.122268677E-2,9.816286926E0,9.816939475E0
1.045807333E1,-9.939331055E-2,6.870712280E-2,9.814340973E0,9.815084739E0
1.046808433E1,-1.001417542E-1,6.885681152E-2,9.814790039E0,9.815542427E0
1.047809633E1,-9.744735718E-2,6.601272583E-2,9.821376343E0,9.822081599E0
1.048810733E1,-9.654922485E-2,6.436614990E-2,9.816735992E0,9.817421775E0
1.049811833E1,-1.017883301E-1,6.885681152E-2,9.816885681E0,9.817654842E0
1.050812933E1,-9.250762939E-2,6.556365967E-2,9.821376343E0,9.822030825E0
1.051814033E1,-1.029858398E-1,6.242019653E-2,9.819131012E0,9.819869459E0
1.052815133E1,-1.047821045E-1,6.750961304E-2,9.814191284E0,9.814982802E0
1.053816333E1,-9.565109253E-2,6.586303711E-2,9.821526031E0,9.822212615E0
1.054817533E1,-9.954299927E-2,7.289840698E-2,9.817634125E0,9.818409382E0
1.055818733E1,-9.699829102E-2,6.541397095E-2,9.810149689E0,9.810847291E0
1.056819833E1,-9.086105347E-2,6.586303711E-2,9.826016693E0,9.826657505E0
1.057820833E1,-9.879455566E-2,6.122268677E-2,9.810598755E0,9.811287199E0
1.058822033E1,-1.088237000E-1,6.212081909E-2,9.821975098E0,9.822774375E0
1.059823133E1,-9.310638428E-2,6.691085815E-2,9.822573853E0,9.823242996E0
1.060824333E1,-9.145980835E-2,6.691085815E-2,9.820777588E0,9.821431382E0
1.061825533E1,-9.355545044E-2,6.616241455E-2,9.818382568E0,9.819051194E0
1.062826833E1,-9.565109253E-2,6.167175293E-2,9.815388794E0,9.816048579E0
1.063828033E1,-1.061293030E-1,6.346801758E-2,9.815089417E0,9.815868371E0
1.064829133E1,-1.056802368E-1,6.376739502E-2,9.821675720E0,9.822451249E0
1.065830333E1,-9.101074219E-2,6.376739502E-2,9.806557159E0,9.807186781E0
1.066831533E1,-9.744735718E-2,6.481521606E-2,9.811796265E0,9.812494226E0
1.067832633E1,-1.025367737E-1,6.765930176E-2,9.817933502E0,9.818702044E0
1.068833833E1,-1.025367737E-1,6.795867920E-2,9.810149689E0,9.810920909E0
1.069834933E1,-9.639953613E-2,6.017486572E-2,9.824070740E0,9.824727975E0
1.070836133E1,-9.864486694E-2,6.122268677E-2,9.826316071E0,9.827001910E0
1.071837233E1,-9.684860229E-2,7.214996338E-2,9.819729767E0,9.820472390E0
1.072838433E1,-1.017883301E-1,7.035369873E-2,9.809700623E0,9.810480967E0
1.073839533E1,-9.116043091E-2,5.942642212E-2,9.814939728E0,9.815542959E0
1.074840733E1,-1.010398865E-1,6.167175293E-2,9.810449066E0,9.811163200E0
1.075841933E1,-9.834548950E-2,6.750961304E-2,9.821226654E0,9.821951047E0
1.076843133E1,-9.714797974E-2,7.200027466E-2,9.824968872E0,9.825712957E0
1.077844333E1,-9.774673462E-2,6.661148071E-2,9.818981323E0,9.819693770E0
1.078845533E1,-1.011895752E-1,6.750961304E-2,9.813442841E0,9.814196720E0
1.079846733E1,-9.939331055E-2,6.735992432E-2,9.807455292E0,9.808190235E0
1.080847933E1,-9.819580078E-2,5.568420410E-2,9.816735992E0,9.817385023E0
1.081849033E1,-9.819580078E-2,6.900650024E-2,9.816286926E0,9.817020593E0
1.082850233E1,-9.714797974E-2,6.691085815E-2,9.813891907E0,9.814600815E0
1.083851333E1,-1.082249451E-1,6.706054688E-2,9.810299377E0,9.811125503E0
1.084852533E1,-1.041833496E-1,7.170089722E-2,9.812095642E0,9.812910683E0
1.085853733E1,-9.505233765E-2,6.930587769E-2,9.820627899E0,9.821332424E0
1.086854833E1,-9.789642334E-2,7.050338745E-2,9.809700623E0,9.810442434E0
1.087855933E1,-9.729766846E-2,7.604187012E-2,9.819580078E0,9.820356517E0
1.088857133E1,-1.029858398E-1,6.316864014E-2,9.813742218E0,9.814485859E0
1.089858333E1,-9.999206543E-2,6.137237549E-2,9.828262024E0,9.828962274E0
1.090859433E1,-1.049317932E-1,6.092330933E-2,9.814790039E0,9.815540018E0
1.091860633E1,-1.040336609E-1,6.331832886E-2,9.814340973E0,9.815096584E0
1.092861833E1,-9.939331055E-2,5.882766724E-2,9.809251556E0,9.809931489E0
1.093862933E1,-9.520202637E-2,6.915618896E-2,9.823322296E0,9.824027022E0
1.094864133E1,-9.475296021E-2,6.122268677E-2,9.819131012E0,9.819779029E0
1.095865333E1,-9.415420532E-2,6.346801758E-2,9.811197510E0,9.811854554E0
1.096866433E1,-9.101074219E-2,6.840774536E-2,9.819879456E0,9.820539450E0
1.097867633E1,-9.520202637E-2,6.840774536E-2,9.821825409E0,9.822525002E0
1.098868833E1,-9.849517822E-2,6.391708374E-2,9.818232880E0,9.818934951E0
1.099870033E1,-9.849517822E-2,6.122268677E-2,9.819131012E0,9.819815851E0
1.100871333E1,-9.280700684E-2,6.361770630E-2,9.817783813E0,9.818428559E0
1.101872533E1,-9.714797974E-2,5.792953491E-2,9.806257782E0,9.806910076E0
1.102873733E1,-9.834548950E-2,6.496490479E-2,9.819280701E0,9.819988073E0
1.103874933E1,-9.834548950E-2,7.140151978E-2,9.813891907E0,9.814644383E0
1.104876133E1,-1.049317932E-1,6.481521606E-2,9.811496887E0,9.812272054E0
1.105877333E1,-1.061293030E-1,6.556365967E-2,9.821975098E0,9.822767270E0
1.106878533E1,-1.022373962E-1,7.484436035E-2,9.816735992E0,9.817553652E0
1.107879633E1,-9.834548950E-2,7.200027466E-2,9.818382568E0,9.819139073E0
1.108880833E1,-9.954299927E-2,6.346801758E-2,9.815837860E0,9.816547758E0
1.109881933E1,-9.984237671E-2,6.780899048E-2,9.806557159E0,9.807299826E0
1.110883133E1,-9.699829102E-2,5.882766724E-2,9.817634125E0,9.818289524E0
1.111884333E1,-9.445358276E-2,6.855743408E-2,9.815538483E0,9.816232338E0
1.112885533E1,-9.789642334E-2,6.496490479E-2,9.813442841E0,9.814146144E0
1.113886733E1,-9.580078125E-2,6.870712280E-2,9.820627899E0,9.821335489E0
1.114887833E1,-1.023870850E-1,6.646179199E-2,9.814340973E0,9.815100051E0
1.115889033E1,-9.759704590E-2,6.002517700E-2,9.819879456E0,9.820547883E0
1.116890133E1,-1.025367737E-1,6.361770630E-2,9.816137238E0,9.816878897E0
1.117891433E1,-1.001417542E-1,6.391708374E-2,9.818681946E0,9.819400639E0
1.118892533E1,-9.610015869E-2,6.227050781E-2,9.810299377E0,9.810967676E0
1.119893733E1,-1.005908203E-1,6.451583862E-2,9.812245331E0,9.812973007E0
1.120895033E1,-9.804611206E-2,7.379653931E-2,9.819131012E0,9.819897800E0
1.121896233E1,-9.086105347E-2,6.526428223E-2,9.810598755E0,9.811236573E0
1.122897433E1,-9.969268799E-2,6.616241455E-2,9.810149689E0,9.810879319E0
1.123898608E1,-9.654922485E-2,6.107299805E-2,9.818382568E0,9.819047200E0
1.124899808E1,-9.639953613E-2,6.915618896E-2,9.812095642E0,9.812812866E0
1.125901008E1,-9.939331055E-2,5.852828979E-2,9.806856537E0,9.807534844E0
1.126902308E1,-9.729766846E-2,7.185058594E-2,9.812844086E0,9.813589475E0
1.127903508E1,-9.445358276E-2,6.571334839E-2,9.815239105E0,9.815913529E0
1.128904708E1,-1.100212097E-1,7.334747314E-2,9.820478210E0,9.821368377E0
1.129905908E1,-9.699829102E-2,7.110214233E-2,9.816286926E0,9.817023643E0
1.130907108E1,-9.864486694E-2,6.990463257E-2,9.806557159E0,9.807302422E0
1.131908308E1,-9.684860229E-2,6.301895142E-2,9.810898132E0,9.811578528E0
1.132909508E1,-9.954299927E-2,6.915618896E-2,9.820029144E0,9.820777148E0
1.133910708E1,-1.016386414E-1,6.047424316E-2,9.813592529E0,9.814305165E0
1.134911908E1,-1.011895752E-1,6.331832886E-2,9.814490662E0,9.815216528E0
1.135913108E1,-9.849517822E-2,6.227050781E-2,9.813293152E0,9.813984991E0
1.136914308E1,-9.415420532E-2,6.137237549E-2,9.820029144E0,9.820672277E0
1.137915508E1,-9.894424438E-2,5.867797852E-2,9.820627899E0,9.821301614E0
1.138916708E1,-9.834548950E-2,6.197113037E-2,9.820029144E0,9.820717115E0
1.139917808E1,-9.026229858E-2,7.005432129E-2,9.819131012E0,9.819795758E0
1.140919008E1,-8.966354370E-2,6.242019653E-2,9.828112335E0,9.828719546E0
1.141920008E1,-1.008901978E-1,6.077362061E-2,9.819430389E0,9.820136732E0
1.142921208E1,-9.355545044E-2,6.780899048E-2,9.811796265E0,9.812476579E0
1.143922308E1,-9.265731812E-2,6.646179199E-2,9.823771362E0,9.824433130E0
1.144923408E1,-1.005908203E-1,6.825805664E-2,9.818681946E0,9.819434445E0
1.145924608E1,-9.624984741E-2,5.209167480E-2,9.811347198E0,9.811957574E0
1.146925708E1,-1.010398865E-1,7.244934082E-2,9.811347198E0,9.812134926E0
1.147926908E1,-1.049317932E-1,6.750961304E-2,9.821975098E0,9.822767586E0
1.148928108E1,-9.475296021E-2,6.631210327E-2,9.824220428E0,9.824901142E0
1.149929308E1,-1.032852173E-1,6.541397095E-2,9.821226654E0,9.821987569E0
1.150930408E1,-1.019380188E-1,6.586303711E-2,9.806856537E0,9.807607478E0
1.151931508E1,-9.864486694E-2,6.286926270E-2,9.815688171E0,9.816385161E0
1.152932608E1,-9.684860229E-2,6.436614990E-2,9.811796265E0,9.812485342E0
1.153933708E1,-9.774673462E-2,6.661148071E-2,9.815239105E0,9.815951824E0
1.154934808E1,-9.340576172E-2,5.972579956E-2,9.813592529E0,9.814218774E0
1.155936008E1,-1.017883301E-1,6.496490479E-2,9.817634125E0,9.818376704E0
1.156937108E1,-9.595046997E-2,7.170089722E-2,9.810000000E0,9.810731242E0
1.157938208E1,-9.565109253E-2,6.182144165E-2,9.811796265E0,9.812457234E0
1.158939308E1,-8.711883545E-2,5.703140259E-2,9.814340973E0,9.814893326E0
1.159940508E1,-9.639953613E-2,6.002517700E-2,9.811646576E0,9.812303727E0
1.160941608E1,-1.050814819E-1,6.810836792E-2,9.812095642E0,9.812894668E0
1.161942708E1,-9.714797974E-2,6.002517700E-2,9.811796265E0,9.812460787E0
1.162943908E1,-9.535171509E-2,6.571334839E-2,9.820777588E0,9.821460310E0
1.163945008E1,-1.010398865E-1,7.319778442E-2,9.827214203E0,9.828006205E0
1.164946108E1,-9.220825195E-2,6.765930176E-2,9.806407471E0,9.807074366E0
1.165947208E1,-9.984237671E-2,6.107299805E-2,9.819280701E0,9.819978202E0
1.166948308E1,-9.580078125E-2,6.391708374E-2,9.814340973E0,9.815016654E0
1.167949408E1,-9.939331055E-2,6.795867920E-2,9.814191284E0,9.814929851E0
1.168950508E1,-1.058299255E-1,6.017486572E-2,9.819280701E0,9.820035360E0
1.169951608E1,-9.639953613E-2,5.718109131E-2,9.821675720E0,9.822315231E0
1.170952708E1,-9.565109253E-2,6.855743408E-2,9.818681946E0,9.819387171E0
1.171953808E1,-9.939331055E-2,7.244934082E-2,9.812544708E0,9.813315525E0
1.172954908E1,-1.041833496E-1,6.780899048E-2,9.831106110E0,9.831891963E0
1.173956008E1,-1.007405090E-1,6.331832886E-2,9.819879456E0,9.820600307E0
1.174957108E1,-1.034349060E-1,6.601272583E-2,9.808203735E0,9.808971250E0
1.175958208E1,-9.460327148E-2,5.897735596E-2,9.812844086E0,9.813477322E0
1.176959308E1,-9.969268799E-2,6.601272583E-2,9.815388794E0,9.816117027E0
1.177960308E1,-9.669891357E-2,6.197113037E-2,9.816885681E0,9.817557516E0
1.178961508E1,-9.684860229E-2,6.406677246E-2,9.813293152E0,9.813980165E0
1.179962508E1,-9.535171509E-2,7.229965210E-2,9.815239105E0,9.815968515E0
1.180963608E1,-9.295669556E-2,7.529342651E-2,9.820478210E0,9.821206765E0
1.181964808E1,-1.002914429E-1,6.436614990E-2,9.823621674E0,9.824344465E0
1.182965808E1,-9.595046997E-2,6.975494385E-2,9.825867004E0,9.826583060E0
1.183966908E1,-1.064286804E-1,6.511459351E-2,9.818532257E0,9.819324959E0
1.184968008E1,-9.879455566E-2,6.331832886E-2,9.819280701E0,9.819981826E0
1.185969108E1,-9.086105347E-2,5.942642212E-2,9.811496887E0,9.812097553E0
1.186970208E1,-9.804611206E-2,6.646179199E-2,9.813592529E0,9.814307339E0
1.187971308E1,-1.061293030E-1,7.304809570E-2,9.817634125E0,9.818479478E0
1.188972408E1,-9.789642334E-2,6.855743408E-2,9.816885681E0,9.817613168E0
1.189973608E1,-1.005908203E-1,6.137237549E-2,9.817484436E0,9.818191571E0
1.190974708E1,-9.550140381E-2,6.825805664E-2,9.818083191E0,9.818784916E0
1.191975708E1,-9.789642334E-2,6.945556641E-2,9.813742218E0,9.814476252E0
1.192976808E1,-9.460327148E-2,6.242019653E-2,9.810449066E0,9.811103757E0
1.193978008E1,-9.774673462E-2,7.244934082E-2,9.807904358E0,9.808658992E0
1.194979108E1,-1.007405090E-1,7.110214233E-2,9.815987549E0,9.816761978E0
1.195980208E1,-9.355545044E-2,6.960525513E-2,9.820178833E0,9.820871134E0
1.196981308E1,-1.026864624E-1,7.035369873E-2,9.814490662E0,9.815279981E0
1.197982308E1,-1.010398865E-1,7.185058594E-2,9.810898132E0,9.811681493E0
1.198983508E1,-9.789642334E-2,6.646179199E-2,9.823022919E0,9.823735549E0
1.199984608E1,-9.550140381E-2,6.017486572E-2,9.825268250E0,9.825916634E0
1.200985708E1,-9.774673462E-2,6.541397095E-2,9.811945953E0,9.812650855E0
1.201986808E1,-9.190887451E-2,6.975494385E-2,9.815388794E0,9.816066940E0
1.202987908E1,-9.520202637E-2,7.095245361E-2,9.814340973E0,9.815059165E0
1.203989108E1,-9.744735718E-2,7.319778442E-2,9.815987549E0,9.816744138E0
1.204990208E1,-9.131011963E-2,6.406677246E-2,9.816586304E0,9.817220011E0
1.205991208E1,-8.637039185E-2,7.214996338E-2,9.815388794E0,9.816033957E0
1.206992408E1,-1.004411316E-1,6.691085815E-2,9.810748444E0,9.811490738E0
1.207993508E1,-9.220825195E-2,7.229965210E-2,9.818532257E0,9.819231400E0
1.208994608E1,-1.052311707E-1,6.301895142E-2,9.829758911E0,9.830524159E0
1.209995708E1,-9.086105347E-2,6.541397095E-2,9.811945953E0,9.812584680E0
1.210996808E1,-9.355545044E-2,7.185058594E-2,9.820627899E0,9.821336338E0
1.211997908E1,-9.939331055E-2,6.691085815E-2,9.808952179E0,9.809683937E0
1.212999108E1,-1.037342834E-1,6.945556641E-2,9.821076965E0,9.821870374E0
1.214000308E1,-9.325607300E-2,6.526428223E-2,9.810449066E0,9.811109367E0
1.215001408E1,-1.002914429E-1,6.271957397E-2,9.804012451E0,9.804726017E0
1.216002508E1,-9.160949707E-2,6.990463257E-2,9.825118561E0,9.825794303E0
1.217003708E1,-1.037342834E-1,5.957611084E-2,9.814640350E0,9.815369342E0
1.218004808E1,-9.804611206E-2,6.571334839E-2,9.819879456E0,9.820588771E0
1.219006008E1,-1.008901978E-1,6.137237549E-2,9.816885681E0,9.817595932E0
1.220007108E1,-1.035845947E-1,7.214996338E-2,9.818981323E0,9.819792748E0
1.221008208E1,-1.082249451E-1,6.152206421E-2,9.830806732E0,9.831594917E0
1.222009308E1,-9.789642334E-2,5.912704468E-2,9.811047821E0,9.811714379E0
1.223010508E1,-9.565109253E-2,7.409591675E-2,9.808353424E0,9.809099664E0
1.224011587E1,-9.759704590E-2,6.556365967E-2,9.826166382E0,9.826869773E0
1.225012788E1,-1.019380188E-1,6.915618896E-2,9.818831635E0,9.819604300E0
1.226013987E1,-9.430389404E-2,6.750961304E-2,9.819131012E0,9.819815915E0
1.227015188E1,-9.624984741E-2,6.197113037E-2,9.827363892E0,9.828030602E0
1.228016387E1,-9.774673462E-2,7.065307617E-2,9.825867004E0,9.826607180E0
1.229017587E1,-9.744735718E-2,6.765930176E-2,9.825717316E0,9.826433460E0
1.230018787E1,-9.580078125E-2,6.391708374E-2,9.822573853E0,9.823248967E0
1.231019987E1,-1.065783691E-1,6.691085815E-2,9.825118561E0,9.825924422E0
1.232021087E1,-9.954299927E-2,7.529342651E-2,9.808952179E0,9.809746213E0
1.233022387E1,-1.005908203E-1,6.750961304E-2,9.812395020E0,9.813142824E0
1.234023488E1,-9.340576172E-2,6.930587769E-2,9.810449066E0,9.811138508E0
1.235024787E1,-1.014889526E-1,5.718109131E-2,9.812245331E0,9.812936773E0
1.236025987E1,-9.789642334E-2,6.286926270E-2,9.826615448E0,9.827304178E0
1.237027188E1,-9.699829102E-2,5.059478760E-2,9.810449066E0,9.811059035E0
1.238028387E1,-9.744735718E-2,6.047424316E-2,9.809251556E0,9.809921978E0
1.239029487E1,-9.565109253E-2,7.005432129E-2,9.830657043E0,9.831371962E0
1.240030587E1,-9.385482788E-2,6.676116943E-2,9.819280701E0,9.819956174E0
1.241031787E1,-1.034349060E-1,5.987548828E-2,9.821376343E0,9.822103498E0
1.242032887E1,-1.005908203E-1,5.912704468E-2,9.820029144E0,9.820722321E0
1.243033987E1,-9.415420532E-2,6.361770630E-2,9.815987549E0,9.816645241E0
1.244035188E1,-9.475296021E-2,5.957611084E-2,9.810898132E0,9.811536556E0
1.245036287E1,-9.370513916E-2,6.541397095E-2,9.806856537E0,9.807522357E0
1.246037387E1,-9.190887451E-2,6.945556641E-2,9.815538483E0,9.816214495E0
1.247038587E1,-9.520202637E-2,7.768844604E-2,9.813143463E0,9.813912754E0
1.248039787E1,-1.001417542E-1,5.822891235E-2,9.820478210E0,9.821161401E0
1.249040987E1,-1.037342834E-1,6.825805664E-2,9.815239105E0,9.816024585E0
1.250042087E1,-9.699829102E-2,6.361770630E-2,9.821675720E0,9.822360706E0
1.251043187E1,-9.849517822E-2,7.244934082E-2,9.815688171E0,9.816449688E0
1.252044287E1,-9.280700684E-2,6.481521606E-2,9.817783813E0,9.818436391E0
1.253045387E1,-1.002914429E-1,5.508544922E-2,9.822424164E0,9.823090615E0
1.254046487E1,-1.022373962E-1,6.661148071E-2,9.819280701E0,9.820038852E0
1.255047587E1,-9.295669556E-2,7.634124756E-2,9.821975098E0,9.822711629E0
1.256048687E1,-9.310638428E-2,7.783813477E-2,9.823621674E0,9.824371245E0
1.257049788E1,-9.879455566E-2,6.466552734E-2,9.821825409E0,9.822535129E0
1.258050987E1,-9.984237671E-2,6.092330933E-2,9.825118561E0,9.825814719E0
1.259052088E1,-9.729766846E-2,6.975494385E-2,9.823621674E0,9.824351143E0
1.260053287E1,-9.475296021E-2,6.735992432E-2,9.818382568E0,9.819070819E0
1.261054487E1,-9.774673462E-2,6.810836792E-2,9.819280701E0,9.820003394E0
1.262055687E1,-9.639953613E-2,6.735992432E-2,9.822124786E0,9.822828796E0
1.263056887E1,-9.295669556E-2,7.005432129E-2,9.819879456E0,9.820569285E0
1.264057987E1,-9.430389404E-2,5.613327026E-2,9.823172607E0,9.823785637E0
1.265059187E1,-9.669891357E-2,7.634124756E-2,9.811347198E0,9.812120694E0
1.266060287E1,-9.939331055E-2,6.556365967E-2,9.811796265E0,9.812518717E0
1.267061388E1,-1.008901978E-1,6.331832886E-2,9.818981323E0,9.819703777E0
1.268062487E1,-1.005908203E-1,6.616241455E-2,9.812993774E0,9.813732358E0
1.269063587E1,-9.086105347E-2,6.346801758E-2,9.813293152E0,9.813919014E0
1.270064688E1,-1.044827271E-1,6.406677246E-2,9.828561401E0,9.829325532E0
1.271065787E1,-9.984237671E-2,6.646179199E-2,9.817185059E0,9.817917709E0
1.272066787E1,-1.002914429E-1,6.571334839E-2,9.812095642E0,9.812828211E0
1.273067887E1,-1.014889526E-1,7.125183105E-2,9.811197510E0,9.811981115E0
1.274068988E1,-9.684860229E-2,6.855743408E-2,9.825867004E0,9.826583443E0
1.275070087E1,-9.714797974E-2,5.822891235E-2,9.812544708E0,9.813198357E0
1.276071087E1,-1.022373962E-1,6.616241455E-2,9.807155914E0,9.807911963E0
1.277072187E1,-9.505233765E-2,6.765930176E-2,9.814340973E0,9.815034460E0
1.278073288E1,-1.034349060E-1,6.002517700E-2,9.815538483E0,9.816266984E0
1.279074387E1,-1.001417542E-1,5.748046875E-2,9.815089417E0,9.815768570E0
1.280075387E1,-9.235794067E-2,6.601272583E-2,9.818532257E0,9.819188528E0
1.281076487E1,-1.005908203E-1,7.005432129E-2,9.820627899E0,9.821392898E0
1.282077687E1,-9.490264893E-2,7.020401001E-2,9.815688171E0,9.816397985E0
1.283078787E1,-1.008901978E-1,6.870712280E-2,9.817634125E0,9.818392909E0
1.284079888E1,-9.684860229E-2,6.137237549E-2,9.818981323E0,9.819650729E0
1.285081087E1,-9.101074219E-2,7.155120850E-2,9.820328522E0,9.821010885E0
1.286082188E1,-1.065783691E-1,6.900650024E-2,9.811796265E0,9.812617734E0
1.287083287E1,-1.026864624E-1,6.990463257E-2,9.810299377E0,9.811085824E0
1.288084487E1,-1.010398865E-1,7.065307617E-2,9.818083191E0,9.818857289E0
1.289085488E1,-9.789642334E-2,6.286926270E-2,9.814340973E0,9.815030565E0
1.290086587E1,-1.041833496E-1,6.331832886E-2,9.811945953E0,9.812703337E0
1.291087687E1,-1.014889526E-1,6.780899048E-2,9.809550934E0,9.810310270E0
1.292088788E1,-1.002914429E-1,5.987548828E-2,9.816436615E0,9.817131519E0
1.293089987E1,-9.505233765E-2,6.691085815E-2,9.813293152E0,9.813981582E0
1.294091087E1,-9.849517822E-2,6.661148071E-2,9.811496887E0,9.812217362E0
1.295092287E1,-9.999206543E-2,6.676116943E-2,9.819131012E0,9.819867071E0
1.296093287E1,-9.430389404E-2,5.942642212E-2,9.816137238E0,9.816770090E0
1.297094287E1,-9.490264893E-2,6.481521606E-2,9.811945953E0,9.812618963E0
1.298095388E1,-9.699829102E-2,6.167175293E-2,9.829160156E0,9.829832219E0
1.299096587E1,-9.759704590E-2,6.301895142E-2,9.810748444E0,9.811436266E0
1.300097687E1,-9.580078125E-2,6.227050781E-2,9.823471985E0,9.824136463E0
1.301098688E1,-9.565109253E-2,7.185058594E-2,9.819131012E0,9.819859748E0
1.302099787E1,-1.011895752E-1,5.972579956E-2,9.811047821E0,9.811751416E0
1.303100987E1,-9.370513916E-2,7.155120850E-2,9.817185059E0,9.817892987E0
1.304102087E1,-9.729766846E-2,6.212081909E-2,9.822723541E0,9.823401834E0
1.305103087E1,-9.744735718E-2,6.706054688E-2,9.810299377E0,9.811012536E0
1.306104287E1,-1.040336609E-1,6.661148071E-2,9.812245331E0,9.813022904E0
1.307105387E1,-9.699829102E-2,6.466552734E-2,9.818981323E0,9.819673341E0
1.308106487E1,-1.007405090E-1,6.271957397E-2,9.816286926E0,9.817004198E0
1.309107587E1,-9.744735718E-2,6.646179199E-2,9.814640350E0,9.815349121E0
1.310108787E1,-1.037342834E-1,6.242019653E-2,9.812844086E0,9.813590889E0
1.311109887E1,-9.834548950E-2,6.451583862E-2,9.824070740E0,9.824774808E0
1.312110988E1,-1.026864624E-1,6.646179199E-2,9.820927277E0,9.821688971E0
1.313112187E1,-9.894424438E-2,6.062393188E-2,9.809700623E0,9.810386920E0
1.314113288E1,-9.430389404E-2,6.286926270E-2,9.825417938E0,9.826071617E0
1.315114487E1,-9.385482788E-2,6.346801758E-2,9.819131012E0,9.819784659E0
1.316115588E1,-9.819580078E-2,8.053253174E-2,9.823172607E0,9.823993484E0
1.317116787E1,-9.610015869E-2,7.439529419E-2,9.817783813E0,9.818535986E0
1.318117887E1,-9.385482788E-2,6.182144165E-2,9.815538483E0,9.816181861E0
1.319118987E1,-9.804611206E-2,6.256988525E-2,9.821226654E0,9.821915344E0
1.320120187E1,-9.819580078E-2,6.451583862E-2,9.808203735E0,9.808907443E0
1.321121387E1,-9.445358276E-2,6.930587769E-2,9.819131012E0,9.819829867E0
1.322122487E1,-1.052311707E-1,6.765930176E-2,9.812694397E0,9.813491871E0
1.323123588E1,-1.007405090E-1,7.035369873E-2,9.814191284E0,9.814960461E0
1.324124821E1,-9.714797974E-2,6.391708374E-2,9.825268250E0,9.825956406E0
1.325125921E1,-9.430389404E-2,5.777984619E-2,9.829908600E0,9.830530749E0
1.326127021E1,-1.013392639E-1,6.421646118E-2,9.816436615E0,9.817169715E0
1.327128121E1,-9.894424438E-2,4.864883423E-2,9.813143463E0,9.813762851E0
1.328129321E1,-1.032852173E-1,6.616241455E-2,9.818232880E0,9.818999042E0
1.329130421E1,-1.022373962E-1,6.256988525E-2,9.820328522E0,9.821060012E0
1.330131621E1,-1.010398865E-1,6.870712280E-2,9.813742218E0,9.814502843E0
1.331132621E1,-1.025367737E-1,6.346801758E-2,9.817783813E0,9.818524379E0
1.332133821E1,-1.028361511E-1,7.319778442E-2,9.818681946E0,9.819493283E0
1.333134821E1,-9.669891357E-2,6.197113037E-2,9.814041595E0,9.814713625E0
1.334136021E1,-9.475296021E-2,5.987548828E-2,9.817933502E0,9.818573290E0
1.335137121E1,-1.008901978E-1,6.017486572E-2,9.816436615E0,9.817139485E0
1.336138221E1,-9.954299927E-2,6.376739502E-2,9.822573853E0,9.823285203E0
1.337139221E1,-9.610015869E-2,5.343887329E-2,9.817185059E0,9.817800845E0
1.338140321E1,-1.005908203E-1,6.242019653E-2,9.820927277E0,9.821640768E0
1.339141421E1,-9.550140381E-2,6.601272583E-2,9.818232880E0,9.818919242E0
1.340142521E1,-9.415420532E-2,6.346801758E-2,9.823022919E0,9.823679172E0
1.341143621E1,-1.025367737E-1,6.601272583E-2,9.817185059E0,9.817942450E0
1.342144621E1,-9.505233765E-2,6.451583862E-2,9.812095642E0,9.812768118E0
1.343145821E1,-9.789642334E-2,6.601272583E-2,9.820328522E0,9.821038319E0
1.344146921E1,-9.669891357E-2,8.277786255E-2,9.810299377E0,9.811125151E0
1.345148121E1,-1.023870850E-1,6.930587769E-2,9.809700623E0,9.810479740E0
1.346149221E1,-1.022373962E-1,5.882766724E-2,9.807455292E0,9.808164583E0
1.347150421E1,-1.005908203E-1,5.882766724E-2,9.811496887E0,9.812188868E0
1.348151521E1,-9.475296021E-2,5.643264771E-2,9.816735992E0,9.817355464E0
1.349152721E1,-9.535171509E-2,6.676116943E-2,9.817484436E0,9.818174456E0
1.350153921E1,-9.969268799E-2,6.960525513E-2,9.817634125E0,9.818387003E0
1.351155021E1,-1.031355286E-1,6.361770630E-2,9.822274475E0,9.823021939E0
1.352156121E1,-1.023870850E-1,6.122268677E-2,9.819280701E0,9.820005337E0
1.353157321E1,-1.028361511E-1,6.286926270E-2,9.823022919E0,9.823762369E0
1.354158521E1,-9.849517822E-2,6.586303711E-2,9.821975098E0,9.822689757E0
1.355159621E1,-9.714797974E-2,7.200027466E-2,9.815089417E0,9.815834250E0
1.356160821E1,-9.535171509E-2,7.080276489E-2,9.800868988E0,9.801588540E0
1.357161921E1,-9.460327148E-2,7.140151978E-2,9.818831635E0,9.819546966E0
1.358163021E1,-9.490264893E-2,7.035369873E-2,9.817783813E0,9.818494547E0
1.359164221E1,-1.019380188E-1,6.421646118E-2,9.818981323E0,9.819720431E0
1.360165321E1,-1.014889526E-1,6.870712280E-2,9.813592529E0,9.814357799E0
1.361166421E1,-9.909393311E-2,6.496490479E-2,9.820178833E0,9.820893664E0
1.362167521E1,-9.999206543E-2,6.691085815E-2,9.824070740E0,9.824807447E0
1.363168721E1,-1.017883301E-1,6.840774536E-2,9.826016693E0,9.826782003E0
1.364169821E1,-9.355545044E-2,6.945556641E-2,9.800569611E0,9.801262235E0
1.365170921E1,-9.774673462E-2,6.601272583E-2,9.805060272E0,9.805769681E0
1.366172021E1,-9.505233765E-2,6.331832886E-2,9.823172607E0,9.823836533E0
1.367173221E1,-1.004411316E-1,6.526428223E-2,9.806108093E0,9.806839643E0
1.368174321E1,-9.864486694E-2,6.780899048E-2,9.818232880E0,9.818962560E0
1.369175521E1,-9.505233765E-2,6.167175293E-2,9.818981323E0,9.819635053E0
1.370176621E1,-9.984237671E-2,6.511459351E-2,9.818681946E0,9.819405459E0
1.371177721E1,-9.280700684E-2,6.436614990E-2,9.817035370E0,9.817685043E0
1.372178821E1,-9.834548950E-2,6.376739502E-2,9.820777588E0,9.821477004E0
1.373180021E1,-1.008901978E-1,6.661148071E-2,9.813891907E0,9.814636533E0
1.374181221E1,-1.014889526E-1,6.286926270E-2,9.814041595E0,9.814767699E0
1.375182221E1,-9.864486694E-2,6.691085815E-2,9.815538483E0,9.816262200E0
1.376183321E1,-9.669891357E-2,6.825805664E-2,9.833950195E0,9.834662490E0
1.377184421E1,-9.954299927E-2,5.643264771E-2,9.825567627E0,9.826233899E0
1.378185521E1,-9.445358276E-2,5.987548828E-2,9.818681946E0,9.819318801E0
1.379186621E1,-9.939331055E-2,6.017486572E-2,9.819580078E0,9.820267458E0
1.380187721E1,-1.032852173E-1,6.571334839E-2,9.821376343E0,9.822139245E0
1.381188821E1,-1.023870850E-1,6.017486572E-2,9.813143463E0,9.813862071E0
1.382189921E1,-9.490264893E-2,7.334747314E-2,9.814340973E0,9.815073871E0
1.383190921E1,-9.565109253E-2,6.646179199E-2,9.811796265E0,9.812487566E0
1.384192021E1,-9.654922485E-2,5.912704468E-2,9.816286926E0,9.816939787E0
1.385193121E1,-1.017883301E-1,5.523513794E-2,9.823172607E0,9.823855244E0
1.386194121E1,-9.909393311E-2,6.870712280E-2,9.815837860E0,9.816578486E0
1.387195321E1,-1.028361511E-1,7.140151978E-2,9.818232880E0,9.819031028E0
1.388196421E1,-9.924362183E-2,6.301895142E-2,9.819729767E0,9.820433462E0
1.389197521E1,-9.774673462E-2,6.406677246E-2,9.817933502E0,9.818629091E0
1.390198521E1,-1.080752563E-1,7.155120850E-2,9.812694397E0,9.813550385E0
1.391199521E1,-1.011895752E-1,6.017486572E-2,9.818681946E0,9.819387735E0
1.392200621E1,-9.385482788E-2,6.721023560E-2,9.820478210E0,9.821156664E0
1.393201621E1,-9.804611206E-2,6.780899048E-2,9.820777588E0,9.821501083E0
1.394202721E1,-9.385482788E-2,6.646179199E-2,9.820627899E0,9.821301249E0
1.395203821E1,-9.340576172E-2,7.065307617E-2,9.826016693E0,9.826714636E0
1.396204921E1,-8.981323242E-2,7.798782349E-2,9.822723541E0,9.823443708E0
1.397206121E1,-9.954299927E-2,7.110214233E-2,9.817035370E0,9.817797501E0
1.398207121E1,-9.744735718E-2,6.750961304E-2,9.814490662E0,9.815206594E0
1.399208221E1,-9.714797974E-2,6.316864014E-2,9.818083191E0,9.818767008E0
1.400209321E1,-9.744735718E-2,6.975494385E-2,9.821076965E0,9.821808107E0
1.401210521E1,-9.984237671E-2,7.185058594E-2,9.817035370E0,9.817805990E0
1.402211621E1,-1.013392639E-1,7.244934082E-2,9.813742218E0,9.814532840E0
1.403212821E1,-1.043330383E-1,6.331832886E-2,9.821975098E0,9.822733296E0
1.404213921E1,-9.475296021E-2,6.526428223E-2,9.828860779E0,9.829534158E0
1.405215021E1,-9.699829102E-2,6.676116943E-2,9.817484436E0,9.818190586E0
1.406216221E1,-9.879455566E-2,6.511459351E-2,9.816137238E0,9.816850337E0
1.407217321E1,-9.774673462E-2,7.035369873E-2,9.819879456E0,9.820617933E0
1.408218521E1,-9.939331055E-2,6.735992432E-2,9.823921051E0,9.824654763E0
1.409219621E1,-9.595046997E-2,7.080276489E-2,9.828112335E0,9.828835719E0
1.410220721E1,-9.520202637E-2,6.706054688E-2,9.828411713E0,9.829101553E0
1.411221821E1,-9.999206543E-2,6.586303711E-2,9.817484436E0,9.818214553E0
1.412222921E1,-9.909393311E-2,6.885681152E-2,9.811347198E0,9.812089213E0
1.413224021E1,-1.017883301E-1,6.511459351E-2,9.817334747E0,9.818078341E0
1.414225021E1,-1.058299255E-1,5.733078003E-2,9.822424164E0,9.823161571E0
1.415226121E1,-1.040336609E-1,7.289840698E-2,9.820927277E0,9.821748813E0
1.416227321E1,-9.759704590E-2,6.391708374E-2,9.817035370E0,9.817728558E0
1.417228421E1,-1.022373962E-1,6.870712280E-2,9.815538483E0,9.816311367E0
1.418229521E1,-1.077758789E-1,6.242019653E-2,9.820328522E0,9.821118276E0
1.419230721E1,-9.535171509E-2,6.152206421E-2,9.811347198E0,9.812003402E0
1.420231821E1,-1.032852173E-1,6.496490479E-2,9.819879456E0,9.820637494E0
1.421233021E1,-9.804611206E-2,6.646179199E-2,9.806407471E0,9.807122804E0
1.422234221E1,-1.007405090E-1,6.152206421E-2,9.826316071E0,9.827025040E0
1.423235421E1,-1.035845947E-1,6.601272583E-2,9.823921051E0,9.824688914E0
1.424236625E1,-1.005908203E-1,6.750961304E-2,9.813442841E0,9.814190565E0
1.425237725E1,-1.034349060E-1,6.661148071E-2,9.823471985E0,9.824242348E0
1.426238925E1,-9.804611206E-2,6.421646118E-2,9.820627899E0,9.821327259E0
1.427240025E1,-9.505233765E-2,6.945556641E-2,9.808652802E0,9.809359245E0
1.428241325E1,-9.535171509E-2,7.110214233E-2,9.818981323E0,9.819701711E0
1.429242425E1,-1.008901978E-1,7.409591675E-2,9.817185059E0,9.817983067E0
1.430243625E1,-1.032852173E-1,6.556365967E-2,9.817035370E0,9.817797609E0
1.431244825E1,-9.370513916E-2,6.810836792E-2,9.813293152E0,9.813976864E0
1.432245925E1,-9.924362183E-2,6.706054688E-2,9.818382568E0,9.819113131E0
1.433247125E1,-9.610015869E-2,6.256988525E-2,9.809550934E0,9.810221188E0
1.434248325E1,-9.759704590E-2,5.837860107E-2,9.820627899E0,9.821286350E0
1.435249525E1,-9.894424438E-2,6.960525513E-2,9.819131012E0,9.819876205E0
1.436250625E1,-1.008901978E-1,6.301895142E-2,9.817484436E0,9.818205074E0
1.437251925E1,-9.565109253E-2,6.780899048E-2,9.824070740E0,9.824770384E0
1.438253125E1,-9.340576172E-2,7.065307617E-2,9.818083191E0,9.818781698E0
1.439254325E1,-9.639953613E-2,6.735992432E-2,9.812993774E0,9.813698439E0
1.440255425E1,-9.624984741E-2,6.616241455E-2,9.819131012E0,9.819825626E0
1.441256725E1,-9.505233765E-2,6.646179199E-2,9.816586304E0,9.817271453E0
1.442257925E1,-9.714797974E-2,6.676116943E-2,9.821675720E0,9.822383048E0
1.443259125E1,-9.924362183E-2,6.182144165E-2,9.816436615E0,9.817132932E0
1.444260325E1,-9.969268799E-2,6.421646118E-2,9.822424164E0,9.823139968E0
1.445261625E1,-1.089733887E-1,7.259902954E-2,9.815837860E0,9.816711196E0
1.446262825E1,-9.490264893E-2,6.601272583E-2,9.814340973E0,9.815021800E0
1.447264025E1,-1.007405090E-1,7.634124756E-2,9.822124786E0,9.822938051E0
1.448265225E1,-1.032852173E-1,7.409591675E-2,9.821376343E0,9.822198904E0
1.449266425E1,-9.894424438E-2,6.571334839E-2,9.818083191E0,9.818801645E0
1.450267625E1,-1.056802368E-1,6.107299805E-2,9.816286926E0,9.817045749E0
1.451268725E1,-9.026229858E-2,6.556365967E-2,9.809700623E0,9.810334968E0
1.452269925E1,-9.490264893E-2,6.526428223E-2,9.818681946E0,9.819357468E0
1.453271125E1,-9.879455566E-2,6.870712280E-2,9.819430389E0,9.820167728E0
1.454272325E1,-9.684860229E-2,6.227050781E-2,9.821975098E0,9.822649952E0
1.455273525E1,-1.019380188E-1,8.292755127E-2,9.808503113E0,9.809383347E0
1.456274625E1,-1.001417542E-1,6.870712280E-2,9.814939728E0,9.815691056E0
1.457275825E1,-9.714797974E-2,5.792953491E-2,9.804611206E0,9.805263610E0
1.458277025E1,-9.864486694E-2,7.155120850E-2,9.814340973E0,9.815097509E0
1.459278125E1,-9.071136475E-2,8.187973022E-2,9.817783813E0,9.818544284E0
1.460279325E1,-9.520202637E-2,6.092330933E-2,9.829160156E0,9.829809991E0
1.461280525E1,-1.073268127E-1,6.556365967E-2,9.812245331E0,9.813051313E0
1.462281625E1,-1.047821045E-1,6.271957397E-2,9.808503113E0,9.809263293E0
1.463282825E1,-9.669891357E-2,6.421646118E-2,9.817035370E0,9.817721624E0
1.464283925E1,-8.831634521E-2,6.631210327E-2,9.815388794E0,9.816010098E0
1.465285125E1,-9.385482788E-2,7.289840698E-2,9.817035370E0,9.817754650E0
1.466286325E1,-1.016386414E-1,6.062393188E-2,9.816735992E0,9.817449324E0
1.467287525E1,-9.879455566E-2,6.870712280E-2,9.821076965E0,9.821814180E0
1.468288725E1,-9.909393311E-2,6.915618896E-2,9.825417938E0,9.826160992E0
1.469289825E1,-1.005908203E-1,6.541397095E-2,9.807904358E0,9.808638305E0
1.470291025E1,-9.011260986E-2,6.002517700E-2,9.815388794E0,9.815985966E0
1.471292125E1,-9.565109253E-2,6.855743408E-2,9.823621674E0,9.824326544E0
1.472293225E1,-9.759704590E-2,6.586303711E-2,9.813742218E0,9.814448504E0
1.473294425E1,-1.032852173E-1,6.331832886E-2,9.816137238E0,9.816884807E0
1.474295525E1,-9.924362183E-2,6.541397095E-2,9.811496887E0,9.812216847E0
1.475296625E1,-8.951385498E-2,6.122268677E-2,9.824819183E0,9.825417698E0
1.476297825E1,-9.819580078E-2,6.122268677E-2,9.830507355E0,9.831188407E0
1.477298925E1,-9.909393311E-2,7.274871826E-2,9.827363892E0,9.828132734E0
1.478300125E1,-1.058299255E-1,6.286926270E-2,9.817334747E0,9.818106440E0
1.479301225E1,-9.984237671E-2,7.170089722E-2,9.818232880E0,9.819002312E0
1.480302325E1,-9.490264893E-2,7.020401001E-2,9.823022919E0,9.823732202E0
1.481303425E1,-1.050814819E-1,6.616241455E-2,9.820627899E0,9.821412929E0
1.482304525E1,-1.007405090E-1,7.469467163E-2,9.814939728E0,9.815740920E0
1.483305625E1,-9.639953613E-2,7.229965210E-2,9.823771362E0,9.824510364E0
1.484306825E1,-9.355545044E-2,7.244934082E-2,9.830357666E0,9.831069798E0
1.485307925E1,-1.094224548E-1,7.364685059E-2,9.811047821E0,9.811934390E0
1.486308925E1,-9.639953613E-2,6.451583862E-2,9.814041595E0,9.814727077E0
1.487310025E1,-9.954299927E-2,7.020401001E-2,9.828860779E0,9.829615538E0
1.488311225E1,-1.047821045E-1,6.167175293E-2,9.824370117E0,9.825122437E0
1.489312225E1,-9.744735718E-2,6.706054688E-2,9.818382568E0,9.819095140E0
1.490313425E1,-1.008901978E-1,6.930587769E-2,9.811047821E0,9.811811325E0
1.491314525E1,-1.002914429E-1,6.631210327E-2,9.818981323E0,9.819717404E0
1.492315725E1,-1.068777466E-1,6.780899048E-2,9.818831635E0,9.819647426E0
1.493316725E1,-9.624984741E-2,7.005432129E-2,9.827513580E0,9.828234573E0
1.494317825E1,-9.774673462E-2,6.900650024E-2,9.822723541E0,9.823452249E0
1.495318925E1,-1.022373962E-1,6.331832886E-2,9.820029144E0,9.820765453E0
1.496320025E1,-1.019380188E-1,7.200027466E-2,9.810449066E0,9.811242851E0
1.497321125E1,-1.004411316E-1,5.703140259E-2,9.820178833E0,9.820858074E0
1.498322225E1,-9.939331055E-2,6.301895142E-2,9.810299377E0,9.811005264E0
1.499323225E1,-9.774673462E-2,6.571334839E-2,9.824070740E0,9.824776769E0
1.500324325E1,-9.789642334E-2,7.394622803E-2,9.813742218E0,9.814509059E0
1.501325325E1,-1.007405090E-1,6.586303711E-2,9.819430389E0,9.820168011E0
1.502326425E1,-9.490264893E-2,7.005432129E-2,9.812095642E0,9.812804645E0
1.503327425E1,-9.639953613E-2,6.556365967E-2,9.816735992E0,9.817428228E0
1.504328525E1,-9.729766846E-2,6.780899048E-2,9.816436615E0,9.817152984E0
1.505329525E1,-9.520202637E-2,5.897735596E-2,9.805509338E0,9.806148843E0
1.506330525E1,-1.014889526E-1,7.050338745E-2,9.808353424E0,9.809131849E0
1.507331625E1,-9.834548950E-2,6.765930176E-2,9.825417938E0,9.826143052E0
1.508332725E1,-9.595046997E-2,7.439529419E-2,9.820328522E0,9.821079036E0
1.509333725E1,-9.624984741E-2,6.242019653E-2,9.811945953E0,9.812616558E0
1.510334825E1,-1.049317932E-1,7.783813477E-2,9.815688171E0,9.816557632E0
1.511335925E1,-1.028361511E-1,6.481521606E-2,9.813742218E0,9.814495026E0
1.512337125E1,-1.011895752E-1,7.289840698E-2,9.815239105E0,9.816031388E0
1.513338125E1,-1.013392639E-1,6.825805664E-2,9.812245331E0,9.813006025E0
1.514339225E1,-1.029858398E-1,6.062393188E-2,9.809251556E0,9.809979482E0
1.515340325E1,-9.924362183E-2,6.197113037E-2,9.824968872E0,9.825665527E0
1.516341425E1,-9.400451660E-2,6.436614990E-2,9.820927277E0,9.821588080E0
1.517342625E1,-9.714797974E-2,6.122268677E-2,9.797126770E0,9.797799697E0
1.518343725E1,-9.834548950E-2,6.032455444E-2,9.811796265E0,9.812474552E0
1.519344825E1,-9.355545044E-2,5.882766724E-2,9.820478210E0,9.821100020E0
1.520346025E1,-9.325607300E-2,7.035369873E-2,9.815987549E0,9.816682632E0
1.521347125E1,-9.654922485E-2,6.810836792E-2,9.817185059E0,9.817896057E0
1.522348325E1,-9.639953613E-2,6.511459351E-2,9.824968872E0,9.825657541E0
1.523349325E1,-9.759704590E-2,6.032455444E-2,9.818681946E0,9.819352290E0
1.524350346E1,-9.834548950E-2,6.481521606E-2,9.813891907E0,9.814598678E0
1.525351446E1,-9.490264893E-2,7.080276489E-2,9.811197510E0,9.811911950E0
1.526352546E1,-1.019380188E-1,6.286926270E-2,9.816286926E0,9.817017517E0
1.527353646E1,-1.110690308E-1,6.855743408E-2,9.812095642E0,9.812963739E0
1.528354746E1,-9.789642334E-2,7.274871826E-2,9.818532257E0,9.819289779E0
1.529355846E1,-1.017883301E-1,6.930587769E-2,9.825118561E0,9.825890235E0
1.530356946E1,-1.070274353E-1,6.032455444E-2,9.824070740E0,9.824838921E0
1.531358046E1,-9.774673462E-2,6.331832886E-2,9.817634125E0,9.818324880E0
1.532359246E1,-9.160949707E-2,6.810836792E-2,9.816885681E0,9.817549365E0
1.533360346E1,-1.025367737E-1,5.957611084E-2,9.811047821E0,9.811764492E0
1.534361446E1,-1.046324158E-1,6.481521606E-2,9.814790039E0,9.815561750E0
1.535362546E1,-1.011895752E-1,6.017486572E-2,9.824220428E0,9.824925820E0
1.536363646E1,-9.235794067E-2,6.750961304E-2,9.822124786E0,9.822790991E0
1.537364646E1,-1.013392639E-1,7.274871826E-2,9.814790039E0,9.815582791E0
1.538365746E1,-9.385482788E-2,6.750961304E-2,9.817634125E0,9.818314829E0
1.539366846E1,-1.005908203E-1,5.972579956E-2,9.817334747E0,9.818031739E0
1.540368046E1,-9.729766846E-2,6.391708374E-2,9.814191284E0,9.814881700E0
1.541369146E1,-1.034349060E-1,6.182144165E-2,9.813891907E0,9.814631681E0
1.542370246E1,-9.759704590E-2,6.032455444E-2,9.820927277E0,9.821597467E0
1.543371446E1,-9.400451660E-2,6.601272583E-2,9.814340973E0,9.815013156E0
1.544372646E1,-1.011895752E-1,6.496490479E-2,9.822573853E0,9.823309873E0
1.545373746E1,-9.714797974E-2,6.810836792E-2,9.816885681E0,9.817602607E0
1.546374946E1,-9.954299927E-2,6.855743408E-2,9.815538483E0,9.816282628E0
1.547376046E1,-1.011895752E-1,7.065307617E-2,9.808802490E0,9.809578864E0
1.548377346E1,-9.909393311E-2,6.511459351E-2,9.820627899E0,9.821343689E0
1.549378446E1,-1.001417542E-1,6.990463257E-2,9.805808716E0,9.806569206E0
1.550379646E1,-9.370513916E-2,7.170089722E-2,9.810898132E0,9.811607607E0
1.551380846E1,-9.939331055E-2,6.735992432E-2,9.813293152E0,9.814027658E0
1.552382046E1,-9.460327148E-2,6.885681152E-2,9.806557159E0,9.807255190E0
1.553383246E1,-1.019380188E-1,6.900650024E-2,9.815388794E0,9.816160677E0
1.554384346E1,-1.020877075E-1,6.301895142E-2,9.820777588E0,9.821510358E0
1.555385646E1,-9.250762939E-2,6.975494385E-2,9.821226654E0,9.821910018E0
1.556386846E1,-1.025367737E-1,7.484436035E-2,9.824669495E0,9.825489614E0
1.557388046E1,-1.016386414E-1,6.646179199E-2,9.815688171E0,9.816439368E0
1.558389246E1,-1.046324158E-1,6.017486572E-2,9.817783813E0,9.818525753E0
1.559390446E1,-9.669891357E-2,6.706054688E-2,9.820328522E0,9.821033554E0
1.560391646E1,-9.984237671E-2,6.750961304E-2,9.814340973E0,9.815080987E0
1.561392746E1,-9.535171509E-2,6.182144165E-2,9.816586304E0,9.817244038E0
1.562394046E1,-9.849517822E-2,6.691085815E-2,9.818681946E0,9.819403929E0
1.563395246E1,-1.046324158E-1,7.259902954E-2,9.815388794E0,9.816214939E0
1.564396346E1,-1.025367737E-1,6.391708374E-2,9.815987549E0,9.816731164E0
1.565397446E1,-9.714797974E-2,6.256988525E-2,9.823322296E0,9.824001916E0
1.566398546E1,-9.954299927E-2,7.708969116E-2,9.818232880E0,9.819040101E0
1.567399646E1,-1.052311707E-1,6.511459351E-2,9.818382568E0,9.819162376E0
1.568400846E1,-9.565109253E-2,6.316864014E-2,9.815388794E0,9.816058098E0
1.569401946E1,-9.684860229E-2,7.514373779E-2,9.813442841E0,9.814208405E0
1.570403146E1,-9.699829102E-2,5.987548828E-2,9.820328522E0,9.820990073E0
1.571404246E1,-9.744735718E-2,7.050338745E-2,9.818681946E0,9.819418611E0
1.572405346E1,-1.008901978E-1,7.574249268E-2,9.810299377E0,9.811110520E0
1.573406446E1,-8.996292114E-2,8.083190918E-2,9.811646576E0,9.812391944E0
1.574407646E1,-9.909393311E-2,6.556365967E-2,9.815089417E0,9.815808599E0
1.575408746E1,-9.789642334E-2,6.840774536E-2,9.813143463E0,9.813870182E0
1.576409846E1,-1.014889526E-1,6.047424316E-2,9.811796265E0,9.812507482E0
1.577411046E1,-1.019380188E-1,7.619155884E-2,9.811347198E0,9.812172561E0
1.578412146E1,-9.610015869E-2,6.885681152E-2,9.811796265E0,9.812508468E0
1.579413346E1,-9.460327148E-2,5.837860107E-2,9.811496887E0,9.812126630E0
1.580414446E1,-9.759704590E-2,6.646179199E-2,9.817634125E0,9.818344166E0
1.581415546E1,-9.654922485E-2,6.212081909E-2,9.818981323E0,9.819652487E0
1.582416646E1,-9.550140381E-2,6.825805664E-2,9.815837860E0,9.816539746E0
1.583417746E1,-1.010398865E-1,7.319778442E-2,9.818382568E0,9.819175283E0
1.584418746E1,-1.107696533E-1,6.316864014E-2,9.818382568E0,9.819210582E0
1.585419946E1,-9.969268799E-2,6.571334839E-2,9.818981323E0,9.819707282E0
1.586421046E1,-1.004411316E-1,5.763015747E-2,9.816885681E0,9.817568647E0
1.587422246E1,-9.160949707E-2,7.170089722E-2,9.815837860E0,9.816527197E0
1.588423346E1,-9.789642334E-2,6.990463257E-2,9.819729767E0,9.820466540E0
1.589424546E1,-9.924362183E-2,6.541397095E-2,9.819580078E0,9.820299445E0
1.590425646E1,-1.037342834E-1,6.586303711E-2,9.822124786E0,9.822893365E0
1.591426846E1,-9.684860229E-2,7.005432129E-2,9.822124786E0,9.822852059E0
1.592427946E1,-1.008901978E-1,6.795867920E-2,9.806257782E0,9.807012231E0
1.593429146E1,-8.996292114E-2,7.125183105E-2,9.815688171E0,9.816359021E0
1.594430246E1,-9.580078125E-2,6.406677246E-2,9.818382568E0,9.819058947E0
1.595431346E1,-9.849517822E-2,7.619155884E-2,9.810898132E0,9.811688367E0
1.596432546E1,-9.819580078E-2,6.556365967E-2,9.816137238E0,9.816847319E0
1.597433646E1,-9.699829102E-2,6.062393188E-2,9.813293152E0,9.813959772E0
1.598434746E1,-9.415420532E-2,6.227050781E-2,9.820927277E0,9.821576004E0
1.599435846E1,-9.565109253E-2,6.511459351E-2,9.812844086E0,9.813526282E0
1.600437046E1,-9.370513916E-2,6.496490479E-2,9.810598755E0,9.811261337E0
1.601438146E1,-1.014889526E-1,5.688171387E-2,9.818083191E0,9.818772483E0
1.602439246E1,-9.759704590E-2,6.451583862E-2,9.808802490E0,9.809500179E0
1.603440346E1,-9.400451660E-2,7.334747314E-2,9.810000000E0,9.810724576E0
1.604441546E1,-9.729766846E-2,7.065307617E-2,9.806706848E0,9.807444004E0
1.605442646E1,-9.550140381E-2,6.316864014E-2,9.800868988E0,9.801537824E0
1.606443846E1,-9.984237671E-2,7.379653931E-2,9.810299377E0,9.811084971E0
1.607444946E1,-1.040336609E-1,7.125183105E-2,9.813742218E0,9.814552264E0
1.608446046E1,-9.580078125E-2,6.227050781E-2,9.811945953E0,9.812611212E0
1.609447146E1,-1.038839722E-1,7.110214233E-2,9.811945953E0,9.812753476E0
1.610448346E1,-9.714797974E-2,7.229965210E-2,9.812993774E0,9.813740968E0
1.611449446E1,-9.400451660E-2,7.080276489E-2,9.829459534E0,9.830164017E0
1.612450646E1,-9.789642334E-2,6.451583862E-2,9.799521790E0,9.800223125E0
1.613451746E1,-1.044827271E-1,6.092330933E-2,9.822873230E0,9.823617805E0
1.614452946E1,-9.340576172E-2,6.182144165E-2,9.817334747E0,9.817973725E0
1.615454046E1,-9.849517822E-2,7.304809570E-2,9.814191284E0,9.814957355E0
1.616455246E1,-9.565109253E-2,6.661148071E-2,9.823921051E0,9.824612513E0
1.617456346E1,-1.022373962E-1,6.481521606E-2,9.822274475E0,9.823020379E0
1.618457546E1,-9.924362183E-2,6.152206421E-2,9.815538483E0,9.816232982E0
1.619458746E1,-9.999206543E-2,6.256988525E-2,9.820178833E0,9.820887216E0
1.620459946E1,-9.954299927E-2,7.454498291E-2,9.809700623E0,9.810488880E0
1.621461146E1,-1.008901978E-1,7.125183105E-2,9.809101868E0,9.809879464E0
1.622462346E1,-9.894424438E-2,6.735992432E-2,9.814490662E0,9.815220541E0
1.623463446E1,-9.864486694E-2,6.182144165E-2,9.811047821E0,9.811738482E0
1.624465021E1,-8.951385498E-2,6.316864014E-2,9.802515564E0,9.803127786E0
1.625466121E1,-9.939331055E-2,6.960525513E-2,9.811945953E0,9.812696231E0
1.626467221E1,-9.849517822E-2,7.289840698E-2,9.817185059E0,9.817949784E0
1.627468321E1,-9.909393311E-2,5.867797852E-2,9.819280701E0,9.819956018E0
1.628469421E1,-8.936416626E-2,7.349716187E-2,9.805958405E0,9.806641016E0
1.629470421E1,-1.043330383E-1,6.571334839E-2,9.819430389E0,9.820204519E0
1.630471621E1,-1.008901978E-1,5.987548828E-2,9.812694397E0,9.813395704E0
1.631472721E1,-1.004411316E-1,6.735992432E-2,9.816137238E0,9.816882196E0
1.632473821E1,-1.001417542E-1,7.065307617E-2,9.815538483E0,9.816303578E0
1.633475021E1,-1.029858398E-1,5.987548828E-2,9.814041595E0,9.814764572E0
1.634476121E1,-9.939331055E-2,6.601272583E-2,9.806108093E0,9.806833977E0
1.635477221E1,-1.038839722E-1,6.571334839E-2,9.818232880E0,9.819002343E0
1.636478421E1,-9.610015869E-2,6.286926270E-2,9.828711090E0,9.829381948E0
1.637479621E1,-1.035845947E-1,6.421646118E-2,9.825417938E0,9.826173781E0
1.638480721E1,-9.684860229E-2,6.840774536E-2,9.816286926E0,9.817003020E0
1.639481821E1,-9.175918579E-2,6.271957397E-2,9.823771362E0,9.824400097E0
1.640483021E1,-9.789642334E-2,6.810836792E-2,9.803713074E0,9.804438408E0
1.641484221E1,-9.580078125E-2,7.439529419E-2,9.814790039E0,9.815539514E0
